start_date,end_date,status,ip_address,progress,duration_in_seconds,finished,recorded_date,response_id,recipient_last_name,recipient_first_name,recipient_email,external_reference,location_latitude,location_longitude,distribution_channel,user_language,sender,sender_type,sender_id,response,response_action,ended_on,duration,time_run,time_render,time_show,time_end,time_commit,timestamp,time_switch,item,phase,sensible,type,direction,correct_answer,text,correct_response,correct,list,block,sensibility,correct_response_2,meta_labjs_version,meta_location,meta_user_agent,meta_platform,meta_language,meta_locale,meta_time_zone,meta_timezone_offset,meta_screen_width,meta_screen_height,meta_scroll_width,meta_scroll_height,meta_window_inner_width,meta_window_inner_height,meta_device_pixel_ratio,meta_labjs_build_flavor,meta_labjs_build_commit,consent
2020-11-17T08:15:06Z,2020-11-17T08:15:59Z,IP Address,151.228.161.246,100,52,TRUE,2020-11-17T08:15:59Z,R_3JynOyQinv7BHL1,NA,NA,NA,NA,54.98809814453125,-1.6194000244140625,anonymous,EN,instructions,canvas.Screen,0,end_instructions,keypress(Space),response,2190.3199999999997,1717,1729.18,1762.68,3953,3968,2020-11-17T15:15:14Z,3995.58,NA,NA,NA,NA,NA,NA,NA,NA,0,NA,NA,NA,NA,20.1.1,https://focused-wilson-356124.netlify.app/,Mozilla/5.0 (Macintosh; Intel Mac OS X 10.16; rv:82.0) Gecko/20100101 Firefox/82.0,MacIntel,en-GB,en-GB,Europe/London,0,1920,1080,770,600,770,600,1,production,c48ac4ada3769e8d34489594ab03097d5f256ac7,Yes
2020-11-17T08:15:06Z,2020-11-17T08:15:59Z,IP Address,151.228.161.246,100,52,TRUE,2020-11-17T08:15:59Z,R_3JynOyQinv7BHL1,NA,NA,NA,NA,54.98809814453125,-1.6194000244140625,anonymous,EN,fixation_cross,canvas.Screen,1_0_0,end_fixation,keypress(Space),response,649.4200000000001,3968,3968.28,3995.58,4645,4649,2020-11-17T15:15:14Z,4678.92,4,prac,nonsense,no_transfer,NA,s,Joe drank the danger with you.,NA,0,NA,NA,NA,NA,NA,NA,NA,NA,NA,NA,NA,NA,NA,NA,NA,NA,NA,NA,NA,NA,NA,Yes
2020-11-17T08:15:06Z,2020-11-17T08:15:59Z,IP Address,151.228.161.246,100,52,TRUE,2020-11-17T08:15:59Z,R_3JynOyQinv7BHL1,NA,NA,NA,NA,54.98809814453125,-1.6194000244140625,anonymous,EN,sentence_screen,canvas.Screen,1_0_1,press_w,keypress(w),response,342.0799999999999,4649,4650.52,4678.92,5021,5030,2020-11-17T15:15:15Z,5062.74,4,prac,nonsense,no_transfer,NA,s,Joe drank the danger with you.,s,0,NA,NA,NA,NA,NA,NA,NA,NA,NA,NA,NA,NA,NA,NA,NA,NA,NA,NA,NA,NA,NA,Yes
2020-11-17T08:15:06Z,2020-11-17T08:15:59Z,IP Address,151.228.161.246,100,52,TRUE,2020-11-17T08:15:59Z,R_3JynOyQinv7BHL1,NA,NA,NA,NA,54.98809814453125,-1.6194000244140625,anonymous,EN,trial,flow.Sequence,1_0,NA,NA,completion,1025.42,3968,3968.28,3995.58,5021,5031,2020-11-17T15:15:15Z,5062.74,4,prac,nonsense,no_transfer,NA,s,Joe drank the danger with you.,NA,0,NA,NA,NA,NA,NA,NA,NA,NA,NA,NA,NA,NA,NA,NA,NA,NA,NA,NA,NA,NA,NA,Yes
2020-11-17T08:15:06Z,2020-11-17T08:15:59Z,IP Address,151.228.161.246,100,52,TRUE,2020-11-17T08:15:59Z,R_3JynOyQinv7BHL1,NA,NA,NA,NA,54.98809814453125,-1.6194000244140625,anonymous,EN,fixation_cross,canvas.Screen,1_1_0,end_fixation,keypress(Space),response,398.2600000000002,5031,5031.78,5062.74,5461,5464,2020-11-17T15:15:15Z,5496.02,2,prac,sensible,no_transfer,NA,w,You read the email with Ian.,NA,0,NA,NA,NA,NA,NA,NA,NA,NA,NA,NA,NA,NA,NA,NA,NA,NA,NA,NA,NA,NA,NA,Yes
2020-11-17T08:15:06Z,2020-11-17T08:15:59Z,IP Address,151.228.161.246,100,52,TRUE,2020-11-17T08:15:59Z,R_3JynOyQinv7BHL1,NA,NA,NA,NA,54.98809814453125,-1.6194000244140625,anonymous,EN,sentence_screen,canvas.Screen,1_1_1,press_s,keypress(s),response,116.97999999999956,5465,5453.74,5496.02,5613,5617,2020-11-17T15:15:15Z,5646.04,2,prac,sensible,no_transfer,NA,w,You read the email with Ian.,w,0,NA,NA,NA,NA,NA,NA,NA,NA,NA,NA,NA,NA,NA,NA,NA,NA,NA,NA,NA,NA,NA,Yes
2020-11-17T08:15:06Z,2020-11-17T08:15:59Z,IP Address,151.228.161.246,100,52,TRUE,2020-11-17T08:15:59Z,R_3JynOyQinv7BHL1,NA,NA,NA,NA,54.98809814453125,-1.6194000244140625,anonymous,EN,trial,flow.Sequence,1_1,NA,NA,completion,550.2600000000002,5031,5031.78,5062.74,5613,5617,2020-11-17T15:15:15Z,5646.04,2,prac,sensible,no_transfer,NA,w,You read the email with Ian.,NA,0,NA,NA,NA,NA,NA,NA,NA,NA,NA,NA,NA,NA,NA,NA,NA,NA,NA,NA,NA,NA,NA,Yes
2020-11-17T08:15:06Z,2020-11-17T08:15:59Z,IP Address,151.228.161.246,100,52,TRUE,2020-11-17T08:15:59Z,R_3JynOyQinv7BHL1,NA,NA,NA,NA,54.98809814453125,-1.6194000244140625,anonymous,EN,fixation_cross,canvas.Screen,1_2_0,end_fixation,keypress(Space),response,94.96000000000004,5617,5629.2,5646.04,5741,5745,2020-11-17T15:15:15Z,5761.74,1,prac,sensible,tranfer,towards,w,You gave the news article to Ben.,NA,0,NA,NA,NA,NA,NA,NA,NA,NA,NA,NA,NA,NA,NA,NA,NA,NA,NA,NA,NA,NA,NA,Yes
2020-11-17T08:15:06Z,2020-11-17T08:15:59Z,IP Address,151.228.161.246,100,52,TRUE,2020-11-17T08:15:59Z,R_3JynOyQinv7BHL1,NA,NA,NA,NA,54.98809814453125,-1.6194000244140625,anonymous,EN,sentence_screen,canvas.Screen,1_2_1,press_w,keypress(w),response,143.26000000000022,5745,5745.48,5761.74,5905,5908,2020-11-17T15:15:15Z,5929.22,1,prac,sensible,tranfer,towards,w,You gave the news article to Ben.,w,1,NA,NA,NA,NA,NA,NA,NA,NA,NA,NA,NA,NA,NA,NA,NA,NA,NA,NA,NA,NA,NA,Yes
2020-11-17T08:15:06Z,2020-11-17T08:15:59Z,IP Address,151.228.161.246,100,52,TRUE,2020-11-17T08:15:59Z,R_3JynOyQinv7BHL1,NA,NA,NA,NA,54.98809814453125,-1.6194000244140625,anonymous,EN,trial,flow.Sequence,1_2,NA,NA,completion,258.96000000000004,5617,5629.2,5646.04,5905,5909,2020-11-17T15:15:15Z,5929.22,1,prac,sensible,tranfer,towards,w,You gave the news article to Ben.,NA,0,NA,NA,NA,NA,NA,NA,NA,NA,NA,NA,NA,NA,NA,NA,NA,NA,NA,NA,NA,NA,NA,Yes
2020-11-17T08:15:06Z,2020-11-17T08:15:59Z,IP Address,151.228.161.246,100,52,TRUE,2020-11-17T08:15:59Z,R_3JynOyQinv7BHL1,NA,NA,NA,NA,54.98809814453125,-1.6194000244140625,anonymous,EN,fixation_cross,canvas.Screen,1_3_0,end_fixation,keypress(Space),response,91.77999999999975,5909,5912.7,5929.22,6021,6025,2020-11-17T15:15:16Z,6046.06,3,prac,nonsense,transfer,away,s,Stephen sent you the alpha.,NA,0,NA,NA,NA,NA,NA,NA,NA,NA,NA,NA,NA,NA,NA,NA,NA,NA,NA,NA,NA,NA,NA,Yes
2020-11-17T08:15:06Z,2020-11-17T08:15:59Z,IP Address,151.228.161.246,100,52,TRUE,2020-11-17T08:15:59Z,R_3JynOyQinv7BHL1,NA,NA,NA,NA,54.98809814453125,-1.6194000244140625,anonymous,EN,sentence_screen,canvas.Screen,1_3_1,press_s,keypress(s),response,154.9399999999996,6025,6028.4,6046.06,6201,6204,2020-11-17T15:15:16Z,6229.2,3,prac,nonsense,transfer,away,s,Stephen sent you the alpha.,s,1,NA,NA,NA,NA,NA,NA,NA,NA,NA,NA,NA,NA,NA,NA,NA,NA,NA,NA,NA,NA,NA,Yes
2020-11-17T08:15:06Z,2020-11-17T08:15:59Z,IP Address,151.228.161.246,100,52,TRUE,2020-11-17T08:15:59Z,R_3JynOyQinv7BHL1,NA,NA,NA,NA,54.98809814453125,-1.6194000244140625,anonymous,EN,trial,flow.Sequence,1_3,NA,NA,completion,271.77999999999975,5909,5912.7,5929.22,6201,6205,2020-11-17T15:15:16Z,6229.2,3,prac,nonsense,transfer,away,s,Stephen sent you the alpha.,NA,0,NA,NA,NA,NA,NA,NA,NA,NA,NA,NA,NA,NA,NA,NA,NA,NA,NA,NA,NA,NA,NA,Yes
2020-11-17T08:15:06Z,2020-11-17T08:15:59Z,IP Address,151.228.161.246,100,52,TRUE,2020-11-17T08:15:59Z,R_3JynOyQinv7BHL1,NA,NA,NA,NA,54.98809814453125,-1.6194000244140625,anonymous,EN,practice_loop,flow.Loop,1,NA,NA,completion,2205.42,3968,3968.28,3995.58,6201,6205,2020-11-17T15:15:16Z,6229.2,NA,NA,NA,NA,NA,NA,NA,NA,0,NA,NA,NA,NA,NA,NA,NA,NA,NA,NA,NA,NA,NA,NA,NA,NA,NA,NA,NA,NA,NA,Yes
2020-11-17T08:15:06Z,2020-11-17T08:15:59Z,IP Address,151.228.161.246,100,52,TRUE,2020-11-17T08:15:59Z,R_3JynOyQinv7BHL1,NA,NA,NA,NA,54.98809814453125,-1.6194000244140625,anonymous,EN,instruction_block_1,canvas.Screen,2,end_instructions,keypress(Space),response,43.80000000000018,6205,6212.24,6229.2,6273,6277,2020-11-17T15:15:16Z,6295.06,NA,NA,NA,NA,NA,NA,NA,NA,0,NA,NA,NA,NA,NA,NA,NA,NA,NA,NA,NA,NA,NA,NA,NA,NA,NA,NA,NA,NA,NA,Yes
2020-11-17T08:15:06Z,2020-11-17T08:15:59Z,IP Address,151.228.161.246,100,52,TRUE,2020-11-17T08:15:59Z,R_3JynOyQinv7BHL1,NA,NA,NA,NA,54.98809814453125,-1.6194000244140625,anonymous,EN,fixation_cross,canvas.Screen,3_0_0,end_fixation,keypress(Space),response,261.9399999999996,6277,6278.94,6295.06,6557,6560,2020-11-17T15:15:16Z,6595.02,37,NA,NA,transfer,towards,NA,Jasmine handed you the puppy.,NA,0,3,1,sensible,w,NA,NA,NA,NA,NA,NA,NA,NA,NA,NA,NA,NA,NA,NA,NA,NA,NA,Yes
2020-11-17T08:15:06Z,2020-11-17T08:15:59Z,IP Address,151.228.161.246,100,52,TRUE,2020-11-17T08:15:59Z,R_3JynOyQinv7BHL1,NA,NA,NA,NA,54.98809814453125,-1.6194000244140625,anonymous,EN,sentence_screen,canvas.Screen,3_0_1,press_s,keypress(s),response,41.97999999999956,6560,6562.34,6595.02,6637,6640,2020-11-17T15:15:16Z,6662.32,37,NA,NA,transfer,towards,NA,Jasmine handed you the puppy.,w,0,3,1,sensible,w,NA,NA,NA,NA,NA,NA,NA,NA,NA,NA,NA,NA,NA,NA,NA,NA,NA,Yes
2020-11-17T08:15:06Z,2020-11-17T08:15:59Z,IP Address,151.228.161.246,100,52,TRUE,2020-11-17T08:15:59Z,R_3JynOyQinv7BHL1,NA,NA,NA,NA,54.98809814453125,-1.6194000244140625,anonymous,EN,trial,flow.Sequence,3_0,NA,NA,completion,341.9399999999996,6277,6278.94,6295.06,6637,6641,2020-11-17T15:15:16Z,6662.32,37,NA,NA,transfer,towards,NA,Jasmine handed you the puppy.,NA,0,3,1,sensible,w,NA,NA,NA,NA,NA,NA,NA,NA,NA,NA,NA,NA,NA,NA,NA,NA,NA,Yes
2020-11-17T08:15:06Z,2020-11-17T08:15:59Z,IP Address,151.228.161.246,100,52,TRUE,2020-11-17T08:15:59Z,R_3JynOyQinv7BHL1,NA,NA,NA,NA,54.98809814453125,-1.6194000244140625,anonymous,EN,fixation_cross,canvas.Screen,3_1_0,end_fixation,keypress(Space),response,121.68000000000029,6642,6645.46,6662.32,6784,6789,2020-11-17T15:15:16Z,6812.24,23,NA,NA,transfer,towards,NA,Ian kicked you the soccer ball.,NA,0,3,1,sensible,w,NA,NA,NA,NA,NA,NA,NA,NA,NA,NA,NA,NA,NA,NA,NA,NA,NA,Yes
2020-11-17T08:15:06Z,2020-11-17T08:15:59Z,IP Address,151.228.161.246,100,52,TRUE,2020-11-17T08:15:59Z,R_3JynOyQinv7BHL1,NA,NA,NA,NA,54.98809814453125,-1.6194000244140625,anonymous,EN,sentence_screen,canvas.Screen,3_1_1,press_s,keypress(s),response,36.76000000000022,6789,6795.96,6812.24,6849,6853,2020-11-17T15:15:16Z,6878.84,23,NA,NA,transfer,towards,NA,Ian kicked you the soccer ball.,w,0,3,1,sensible,w,NA,NA,NA,NA,NA,NA,NA,NA,NA,NA,NA,NA,NA,NA,NA,NA,NA,Yes
2020-11-17T08:15:06Z,2020-11-17T08:15:59Z,IP Address,151.228.161.246,100,52,TRUE,2020-11-17T08:15:59Z,R_3JynOyQinv7BHL1,NA,NA,NA,NA,54.98809814453125,-1.6194000244140625,anonymous,EN,trial,flow.Sequence,3_1,NA,NA,completion,186.6800000000003,6642,6645.46,6662.32,6849,6853,2020-11-17T15:15:16Z,6878.84,23,NA,NA,transfer,towards,NA,Ian kicked you the soccer ball.,NA,0,3,1,sensible,w,NA,NA,NA,NA,NA,NA,NA,NA,NA,NA,NA,NA,NA,NA,NA,NA,NA,Yes
2020-11-17T08:15:06Z,2020-11-17T08:15:59Z,IP Address,151.228.161.246,100,52,TRUE,2020-11-17T08:15:59Z,R_3JynOyQinv7BHL1,NA,NA,NA,NA,54.98809814453125,-1.6194000244140625,anonymous,EN,fixation_cross,canvas.Screen,3_2_0,end_fixation,keypress(Space),response,103.15999999999985,6854,6862.64,6878.84,6982,6985,2020-11-17T15:15:17Z,7012.34,30,NA,NA,transfer,away,NA,You shot Shaimaaa the rubber band.,NA,0,3,1,sensible,w,NA,NA,NA,NA,NA,NA,NA,NA,NA,NA,NA,NA,NA,NA,NA,NA,NA,Yes
2020-11-17T08:15:06Z,2020-11-17T08:15:59Z,IP Address,151.228.161.246,100,52,TRUE,2020-11-17T08:15:59Z,R_3JynOyQinv7BHL1,NA,NA,NA,NA,54.98809814453125,-1.6194000244140625,anonymous,EN,sentence_screen,canvas.Screen,3_2_1,press_s,keypress(s),response,16.659999999999854,6985,6996.02,7012.34,7029,7032,2020-11-17T15:15:17Z,7062.64,30,NA,NA,transfer,away,NA,You shot Shaimaaa the rubber band.,w,0,3,1,sensible,w,NA,NA,NA,NA,NA,NA,NA,NA,NA,NA,NA,NA,NA,NA,NA,NA,NA,Yes
2020-11-17T08:15:06Z,2020-11-17T08:15:59Z,IP Address,151.228.161.246,100,52,TRUE,2020-11-17T08:15:59Z,R_3JynOyQinv7BHL1,NA,NA,NA,NA,54.98809814453125,-1.6194000244140625,anonymous,EN,trial,flow.Sequence,3_2,NA,NA,completion,150.15999999999985,6854,6862.64,6878.84,7029,7033,2020-11-17T15:15:17Z,7062.64,30,NA,NA,transfer,away,NA,You shot Shaimaaa the rubber band.,NA,0,3,1,sensible,w,NA,NA,NA,NA,NA,NA,NA,NA,NA,NA,NA,NA,NA,NA,NA,NA,NA,Yes
2020-11-17T08:15:06Z,2020-11-17T08:15:59Z,IP Address,151.228.161.246,100,52,TRUE,2020-11-17T08:15:59Z,R_3JynOyQinv7BHL1,NA,NA,NA,NA,54.98809814453125,-1.6194000244140625,anonymous,EN,fixation_cross,canvas.Screen,3_3_0,end_fixation,keypress(Space),response,122.35999999999967,7033,7045.98,7062.64,7185,7189,2020-11-17T15:15:17Z,7212.32,31,NA,NA,transfer,towards,NA,Blake poured you some water.,NA,0,3,1,sensible,w,NA,NA,NA,NA,NA,NA,NA,NA,NA,NA,NA,NA,NA,NA,NA,NA,NA,Yes
2020-11-17T08:15:06Z,2020-11-17T08:15:59Z,IP Address,151.228.161.246,100,52,TRUE,2020-11-17T08:15:59Z,R_3JynOyQinv7BHL1,NA,NA,NA,NA,54.98809814453125,-1.6194000244140625,anonymous,EN,sentence_screen,canvas.Screen,3_3_1,press_w,keypress(w),response,NA,7189,NA,NA,7189,7192,2020-11-17T15:15:17Z,7212.32,31,NA,NA,transfer,towards,NA,Blake poured you some water.,w,1,3,1,sensible,w,NA,NA,NA,NA,NA,NA,NA,NA,NA,NA,NA,NA,NA,NA,NA,NA,NA,Yes
2020-11-17T08:15:06Z,2020-11-17T08:15:59Z,IP Address,151.228.161.246,100,52,TRUE,2020-11-17T08:15:59Z,R_3JynOyQinv7BHL1,NA,NA,NA,NA,54.98809814453125,-1.6194000244140625,anonymous,EN,trial,flow.Sequence,3_3,NA,NA,completion,126.35999999999967,7033,7045.98,7062.64,7189,7192,2020-11-17T15:15:17Z,7212.32,31,NA,NA,transfer,towards,NA,Blake poured you some water.,NA,0,3,1,sensible,w,NA,NA,NA,NA,NA,NA,NA,NA,NA,NA,NA,NA,NA,NA,NA,NA,NA,Yes
2020-11-17T08:15:06Z,2020-11-17T08:15:59Z,IP Address,151.228.161.246,100,52,TRUE,2020-11-17T08:15:59Z,R_3JynOyQinv7BHL1,NA,NA,NA,NA,54.98809814453125,-1.6194000244140625,anonymous,EN,fixation_cross,canvas.Screen,3_4_0,end_fixation,keypress(Space),response,176.6800000000003,7192,7195.96,7212.32,7389,7392,2020-11-17T15:15:17Z,7412.3,155,NA,NA,transfer,NA,NA,You bled the rations to Adhraaa.,NA,0,3,1,nonsense,s,NA,NA,NA,NA,NA,NA,NA,NA,NA,NA,NA,NA,NA,NA,NA,NA,NA,Yes
2020-11-17T08:15:06Z,2020-11-17T08:15:59Z,IP Address,151.228.161.246,100,52,TRUE,2020-11-17T08:15:59Z,R_3JynOyQinv7BHL1,NA,NA,NA,NA,54.98809814453125,-1.6194000244140625,anonymous,EN,sentence_screen,canvas.Screen,3_4_1,press_w,keypress(w),response,164.69999999999982,7392,7395.96,7412.3,7577,7581,2020-11-17T15:15:17Z,7612.2,155,NA,NA,transfer,NA,NA,You bled the rations to Adhraaa.,s,0,3,1,nonsense,s,NA,NA,NA,NA,NA,NA,NA,NA,NA,NA,NA,NA,NA,NA,NA,NA,NA,Yes
2020-11-17T08:15:06Z,2020-11-17T08:15:59Z,IP Address,151.228.161.246,100,52,TRUE,2020-11-17T08:15:59Z,R_3JynOyQinv7BHL1,NA,NA,NA,NA,54.98809814453125,-1.6194000244140625,anonymous,EN,trial,flow.Sequence,3_4,NA,NA,completion,364.6800000000003,7192,7195.96,7212.32,7577,7581,2020-11-17T15:15:17Z,7612.2,155,NA,NA,transfer,NA,NA,You bled the rations to Adhraaa.,NA,0,3,1,nonsense,s,NA,NA,NA,NA,NA,NA,NA,NA,NA,NA,NA,NA,NA,NA,NA,NA,NA,Yes
2020-11-17T08:15:06Z,2020-11-17T08:15:59Z,IP Address,151.228.161.246,100,52,TRUE,2020-11-17T08:15:59Z,R_3JynOyQinv7BHL1,NA,NA,NA,NA,54.98809814453125,-1.6194000244140625,anonymous,EN,fixation_cross,canvas.Screen,3_5_0,end_fixation,keypress(Space),response,NA,7582,NA,NA,7581,7584,2020-11-17T15:15:17Z,7612.2,185,NA,NA,transfer,NA,NA,Michael tackled the cloud to you.,NA,0,3,1,nonsense,s,NA,NA,NA,NA,NA,NA,NA,NA,NA,NA,NA,NA,NA,NA,NA,NA,NA,Yes
2020-11-17T08:15:06Z,2020-11-17T08:15:59Z,IP Address,151.228.161.246,100,52,TRUE,2020-11-17T08:15:59Z,R_3JynOyQinv7BHL1,NA,NA,NA,NA,54.98809814453125,-1.6194000244140625,anonymous,EN,sentence_screen,canvas.Screen,3_5_1,press_w,keypress(w),response,132.80000000000018,7584,7596,7612.2,7745,7749,2020-11-17T15:15:17Z,7779.2,185,NA,NA,transfer,NA,NA,Michael tackled the cloud to you.,s,0,3,1,nonsense,s,NA,NA,NA,NA,NA,NA,NA,NA,NA,NA,NA,NA,NA,NA,NA,NA,NA,Yes
2020-11-17T08:15:06Z,2020-11-17T08:15:59Z,IP Address,151.228.161.246,100,52,TRUE,2020-11-17T08:15:59Z,R_3JynOyQinv7BHL1,NA,NA,NA,NA,54.98809814453125,-1.6194000244140625,anonymous,EN,trial,flow.Sequence,3_5,NA,NA,completion,132.80000000000018,7581,7596,7612.2,7745,7750,2020-11-17T15:15:17Z,7779.2,185,NA,NA,transfer,NA,NA,Michael tackled the cloud to you.,NA,0,3,1,nonsense,s,NA,NA,NA,NA,NA,NA,NA,NA,NA,NA,NA,NA,NA,NA,NA,NA,NA,Yes
2020-11-17T08:15:06Z,2020-11-17T08:15:59Z,IP Address,151.228.161.246,100,52,TRUE,2020-11-17T08:15:59Z,R_3JynOyQinv7BHL1,NA,NA,NA,NA,54.98809814453125,-1.6194000244140625,anonymous,EN,fixation_cross,canvas.Screen,3_6_0,end_fixation,keypress(Space),response,93.80000000000018,7750,7761.68,7779.2,7873,7877,2020-11-17T15:15:17Z,7895.06,22,NA,NA,transfer,away,NA,You awarded a medal to Latesha.,NA,0,3,1,sensible,w,NA,NA,NA,NA,NA,NA,NA,NA,NA,NA,NA,NA,NA,NA,NA,NA,NA,Yes
2020-11-17T08:15:06Z,2020-11-17T08:15:59Z,IP Address,151.228.161.246,100,52,TRUE,2020-11-17T08:15:59Z,R_3JynOyQinv7BHL1,NA,NA,NA,NA,54.98809814453125,-1.6194000244140625,anonymous,EN,sentence_screen,canvas.Screen,3_6_1,press_w,keypress(w),response,69.9399999999996,7877,7879.2,7895.06,7965,7969,2020-11-17T15:15:18Z,7995.1,22,NA,NA,transfer,away,NA,You awarded a medal to Latesha.,w,1,3,1,sensible,w,NA,NA,NA,NA,NA,NA,NA,NA,NA,NA,NA,NA,NA,NA,NA,NA,NA,Yes
2020-11-17T08:15:06Z,2020-11-17T08:15:59Z,IP Address,151.228.161.246,100,52,TRUE,2020-11-17T08:15:59Z,R_3JynOyQinv7BHL1,NA,NA,NA,NA,54.98809814453125,-1.6194000244140625,anonymous,EN,trial,flow.Sequence,3_6,NA,NA,completion,185.80000000000018,7750,7761.68,7779.2,7965,7969,2020-11-17T15:15:18Z,7995.1,22,NA,NA,transfer,away,NA,You awarded a medal to Latesha.,NA,0,3,1,sensible,w,NA,NA,NA,NA,NA,NA,NA,NA,NA,NA,NA,NA,NA,NA,NA,NA,NA,Yes
2020-11-17T08:15:06Z,2020-11-17T08:15:59Z,IP Address,151.228.161.246,100,52,TRUE,2020-11-17T08:15:59Z,R_3JynOyQinv7BHL1,NA,NA,NA,NA,54.98809814453125,-1.6194000244140625,anonymous,EN,fixation_cross,canvas.Screen,3_7_0,end_fixation,keypress(Space),response,101.89999999999964,7969,7979.22,7995.1,8097,8100,2020-11-17T15:15:18Z,8129.2,62,NA,NA,no_transfer,NA,NA,You played cards with Joshua.,NA,0,3,1,sensible,w,NA,NA,NA,NA,NA,NA,NA,NA,NA,NA,NA,NA,NA,NA,NA,NA,NA,Yes
2020-11-17T08:15:06Z,2020-11-17T08:15:59Z,IP Address,151.228.161.246,100,52,TRUE,2020-11-17T08:15:59Z,R_3JynOyQinv7BHL1,NA,NA,NA,NA,54.98809814453125,-1.6194000244140625,anonymous,EN,sentence_screen,canvas.Screen,3_7_1,press_s,keypress(s),response,39.80000000000018,8101,8112.66,8129.2,8169,8172,2020-11-17T15:15:18Z,8195.98,62,NA,NA,no_transfer,NA,NA,You played cards with Joshua.,w,0,3,1,sensible,w,NA,NA,NA,NA,NA,NA,NA,NA,NA,NA,NA,NA,NA,NA,NA,NA,NA,Yes
2020-11-17T08:15:06Z,2020-11-17T08:15:59Z,IP Address,151.228.161.246,100,52,TRUE,2020-11-17T08:15:59Z,R_3JynOyQinv7BHL1,NA,NA,NA,NA,54.98809814453125,-1.6194000244140625,anonymous,EN,trial,flow.Sequence,3_7,NA,NA,completion,173.89999999999964,7969,7979.22,7995.1,8169,8173,2020-11-17T15:15:18Z,8195.98,62,NA,NA,no_transfer,NA,NA,You played cards with Joshua.,NA,0,3,1,sensible,w,NA,NA,NA,NA,NA,NA,NA,NA,NA,NA,NA,NA,NA,NA,NA,NA,NA,Yes
2020-11-17T08:15:06Z,2020-11-17T08:15:59Z,IP Address,151.228.161.246,100,52,TRUE,2020-11-17T08:15:59Z,R_3JynOyQinv7BHL1,NA,NA,NA,NA,54.98809814453125,-1.6194000244140625,anonymous,EN,fixation_cross,canvas.Screen,3_8_0,end_fixation,keypress(Space),response,94.02000000000044,8173,8179.2,8195.98,8290,8292,2020-11-17T15:15:18Z,8312.64,149,NA,NA,transfer,NA,NA,Ron paddled fairness to you.,NA,0,3,1,nonsense,s,NA,NA,NA,NA,NA,NA,NA,NA,NA,NA,NA,NA,NA,NA,NA,NA,NA,Yes
2020-11-17T08:15:06Z,2020-11-17T08:15:59Z,IP Address,151.228.161.246,100,52,TRUE,2020-11-17T08:15:59Z,R_3JynOyQinv7BHL1,NA,NA,NA,NA,54.98809814453125,-1.6194000244140625,anonymous,EN,sentence_screen,canvas.Screen,3_8_1,press_s,keypress(s),response,44.36000000000058,8292,8295.02,8312.64,8357,8361,2020-11-17T15:15:18Z,8379.22,149,NA,NA,transfer,NA,NA,Ron paddled fairness to you.,s,1,3,1,nonsense,s,NA,NA,NA,NA,NA,NA,NA,NA,NA,NA,NA,NA,NA,NA,NA,NA,NA,Yes
2020-11-17T08:15:06Z,2020-11-17T08:15:59Z,IP Address,151.228.161.246,100,52,TRUE,2020-11-17T08:15:59Z,R_3JynOyQinv7BHL1,NA,NA,NA,NA,54.98809814453125,-1.6194000244140625,anonymous,EN,trial,flow.Sequence,3_8,NA,NA,completion,161.02000000000044,8173,8179.2,8195.98,8357,8361,2020-11-17T15:15:18Z,8379.22,149,NA,NA,transfer,NA,NA,Ron paddled fairness to you.,NA,0,3,1,nonsense,s,NA,NA,NA,NA,NA,NA,NA,NA,NA,NA,NA,NA,NA,NA,NA,NA,NA,Yes
2020-11-17T08:15:06Z,2020-11-17T08:15:59Z,IP Address,151.228.161.246,100,52,TRUE,2020-11-17T08:15:59Z,R_3JynOyQinv7BHL1,NA,NA,NA,NA,54.98809814453125,-1.6194000244140625,anonymous,EN,fixation_cross,canvas.Screen,3_9_0,end_fixation,keypress(Space),response,109.78000000000065,8361,8362.34,8379.22,8489,8492,2020-11-17T15:15:18Z,8512.66,26,NA,NA,transfer,away,NA,You handed Tanner the notebook.,NA,0,3,1,sensible,w,NA,NA,NA,NA,NA,NA,NA,NA,NA,NA,NA,NA,NA,NA,NA,NA,NA,Yes
2020-11-17T08:15:06Z,2020-11-17T08:15:59Z,IP Address,151.228.161.246,100,52,TRUE,2020-11-17T08:15:59Z,R_3JynOyQinv7BHL1,NA,NA,NA,NA,54.98809814453125,-1.6194000244140625,anonymous,EN,sentence_screen,canvas.Screen,3_9_1,press_s,keypress(s),response,45.340000000000146,8493,8495.08,8512.66,8558,8561,2020-11-17T15:15:18Z,8579.18,26,NA,NA,transfer,away,NA,You handed Tanner the notebook.,w,0,3,1,sensible,w,NA,NA,NA,NA,NA,NA,NA,NA,NA,NA,NA,NA,NA,NA,NA,NA,NA,Yes
2020-11-17T08:15:06Z,2020-11-17T08:15:59Z,IP Address,151.228.161.246,100,52,TRUE,2020-11-17T08:15:59Z,R_3JynOyQinv7BHL1,NA,NA,NA,NA,54.98809814453125,-1.6194000244140625,anonymous,EN,trial,flow.Sequence,3_9,NA,NA,completion,178.78000000000065,8361,8362.34,8379.22,8558,8561,2020-11-17T15:15:18Z,8579.18,26,NA,NA,transfer,away,NA,You handed Tanner the notebook.,NA,0,3,1,sensible,w,NA,NA,NA,NA,NA,NA,NA,NA,NA,NA,NA,NA,NA,NA,NA,NA,NA,Yes
2020-11-17T08:15:06Z,2020-11-17T08:15:59Z,IP Address,151.228.161.246,100,52,TRUE,2020-11-17T08:15:59Z,R_3JynOyQinv7BHL1,NA,NA,NA,NA,54.98809814453125,-1.6194000244140625,anonymous,EN,fixation_cross,canvas.Screen,3_10_0,end_fixation,keypress(Space),response,102.81999999999971,8561,8562.22,8579.18,8682,8685,2020-11-17T15:15:18Z,8712.66,193,NA,NA,transfer,NA,NA,You fertilized Kaylee advice.,NA,0,3,1,nonsense,s,NA,NA,NA,NA,NA,NA,NA,NA,NA,NA,NA,NA,NA,NA,NA,NA,NA,Yes
2020-11-17T08:15:06Z,2020-11-17T08:15:59Z,IP Address,151.228.161.246,100,52,TRUE,2020-11-17T08:15:59Z,R_3JynOyQinv7BHL1,NA,NA,NA,NA,54.98809814453125,-1.6194000244140625,anonymous,EN,sentence_screen,canvas.Screen,3_10_1,press_s,keypress(s),response,8.340000000000146,8685,8695.02,8712.66,8721,8724,2020-11-17T15:15:18Z,8745.6,193,NA,NA,transfer,NA,NA,You fertilized Kaylee advice.,s,1,3,1,nonsense,s,NA,NA,NA,NA,NA,NA,NA,NA,NA,NA,NA,NA,NA,NA,NA,NA,NA,Yes
2020-11-17T08:15:06Z,2020-11-17T08:15:59Z,IP Address,151.228.161.246,100,52,TRUE,2020-11-17T08:15:59Z,R_3JynOyQinv7BHL1,NA,NA,NA,NA,54.98809814453125,-1.6194000244140625,anonymous,EN,trial,flow.Sequence,3_10,NA,NA,completion,141.8199999999997,8561,8562.22,8579.18,8721,8725,2020-11-17T15:15:18Z,8745.6,193,NA,NA,transfer,NA,NA,You fertilized Kaylee advice.,NA,0,3,1,nonsense,s,NA,NA,NA,NA,NA,NA,NA,NA,NA,NA,NA,NA,NA,NA,NA,NA,NA,Yes
2020-11-17T08:15:06Z,2020-11-17T08:15:59Z,IP Address,151.228.161.246,100,52,TRUE,2020-11-17T08:15:59Z,R_3JynOyQinv7BHL1,NA,NA,NA,NA,54.98809814453125,-1.6194000244140625,anonymous,EN,fixation_cross,canvas.Screen,3_11_0,end_fixation,keypress(Space),response,203.39999999999964,8725,8729.18,8745.6,8949,8987,2020-11-17T15:15:19Z,9029.2,38,NA,NA,transfer,away,NA,You drove the car to Rasheeda.,NA,0,3,1,sensible,w,NA,NA,NA,NA,NA,NA,NA,NA,NA,NA,NA,NA,NA,NA,NA,NA,NA,Yes
2020-11-17T08:15:06Z,2020-11-17T08:15:59Z,IP Address,151.228.161.246,100,52,TRUE,2020-11-17T08:15:59Z,R_3JynOyQinv7BHL1,NA,NA,NA,NA,54.98809814453125,-1.6194000244140625,anonymous,EN,sentence_screen,canvas.Screen,3_11_1,press_w,keypress(w),response,30.799999999999272,8987,8989.04,9029.2,9060,9068,2020-11-17T15:15:19Z,9095.08,38,NA,NA,transfer,away,NA,You drove the car to Rasheeda.,w,1,3,1,sensible,w,NA,NA,NA,NA,NA,NA,NA,NA,NA,NA,NA,NA,NA,NA,NA,NA,NA,Yes
2020-11-17T08:15:06Z,2020-11-17T08:15:59Z,IP Address,151.228.161.246,100,52,TRUE,2020-11-17T08:15:59Z,R_3JynOyQinv7BHL1,NA,NA,NA,NA,54.98809814453125,-1.6194000244140625,anonymous,EN,trial,flow.Sequence,3_11,NA,NA,completion,314.39999999999964,8725,8729.18,8745.6,9060,9068,2020-11-17T15:15:19Z,9095.08,38,NA,NA,transfer,away,NA,You drove the car to Rasheeda.,NA,0,3,1,sensible,w,NA,NA,NA,NA,NA,NA,NA,NA,NA,NA,NA,NA,NA,NA,NA,NA,NA,Yes
2020-11-17T08:15:06Z,2020-11-17T08:15:59Z,IP Address,151.228.161.246,100,52,TRUE,2020-11-17T08:15:59Z,R_3JynOyQinv7BHL1,NA,NA,NA,NA,54.98809814453125,-1.6194000244140625,anonymous,EN,fixation_cross,canvas.Screen,3_12_0,end_fixation,keypress(Space),response,69.92000000000007,9068,9079.18,9095.08,9165,9168,2020-11-17T15:15:19Z,9195.98,173,NA,NA,transfer,NA,NA,Tyler locked the lint roller to you.,NA,0,3,1,nonsense,s,NA,NA,NA,NA,NA,NA,NA,NA,NA,NA,NA,NA,NA,NA,NA,NA,NA,Yes
2020-11-17T08:15:06Z,2020-11-17T08:15:59Z,IP Address,151.228.161.246,100,52,TRUE,2020-11-17T08:15:59Z,R_3JynOyQinv7BHL1,NA,NA,NA,NA,54.98809814453125,-1.6194000244140625,anonymous,EN,sentence_screen,canvas.Screen,3_12_1,press_w,keypress(w),response,33.02000000000044,9168,9179.2,9195.98,9229,9233,2020-11-17T15:15:19Z,9262.64,173,NA,NA,transfer,NA,NA,Tyler locked the lint roller to you.,s,0,3,1,nonsense,s,NA,NA,NA,NA,NA,NA,NA,NA,NA,NA,NA,NA,NA,NA,NA,NA,NA,Yes
2020-11-17T08:15:06Z,2020-11-17T08:15:59Z,IP Address,151.228.161.246,100,52,TRUE,2020-11-17T08:15:59Z,R_3JynOyQinv7BHL1,NA,NA,NA,NA,54.98809814453125,-1.6194000244140625,anonymous,EN,trial,flow.Sequence,3_12,NA,NA,completion,133.92000000000007,9068,9079.18,9095.08,9229,9233,2020-11-17T15:15:19Z,9262.64,173,NA,NA,transfer,NA,NA,Tyler locked the lint roller to you.,NA,0,3,1,nonsense,s,NA,NA,NA,NA,NA,NA,NA,NA,NA,NA,NA,NA,NA,NA,NA,NA,NA,Yes
2020-11-17T08:15:06Z,2020-11-17T08:15:59Z,IP Address,151.228.161.246,100,52,TRUE,2020-11-17T08:15:59Z,R_3JynOyQinv7BHL1,NA,NA,NA,NA,54.98809814453125,-1.6194000244140625,anonymous,EN,fixation_cross,canvas.Screen,3_13_0,end_fixation,keypress(Space),response,98.36000000000058,9233,9246,9262.64,9361,9365,2020-11-17T15:15:19Z,9395.98,143,NA,NA,transfer,NA,NA,You fell the message to Dyanna.,NA,0,3,1,nonsense,s,NA,NA,NA,NA,NA,NA,NA,NA,NA,NA,NA,NA,NA,NA,NA,NA,NA,Yes
2020-11-17T08:15:06Z,2020-11-17T08:15:59Z,IP Address,151.228.161.246,100,52,TRUE,2020-11-17T08:15:59Z,R_3JynOyQinv7BHL1,NA,NA,NA,NA,54.98809814453125,-1.6194000244140625,anonymous,EN,sentence_screen,canvas.Screen,3_13_1,press_w,keypress(w),response,9.780000000000655,9365,9379.22,NA,9389,9392,2020-11-17T15:15:19Z,9411.94,143,NA,NA,transfer,NA,NA,You fell the message to Dyanna.,s,0,3,1,nonsense,s,NA,NA,NA,NA,NA,NA,NA,NA,NA,NA,NA,NA,NA,NA,NA,NA,NA,Yes
2020-11-17T08:15:06Z,2020-11-17T08:15:59Z,IP Address,151.228.161.246,100,52,TRUE,2020-11-17T08:15:59Z,R_3JynOyQinv7BHL1,NA,NA,NA,NA,54.98809814453125,-1.6194000244140625,anonymous,EN,trial,flow.Sequence,3_13,NA,NA,completion,126.36000000000058,9233,9246,9262.64,9389,9392,2020-11-17T15:15:19Z,9411.94,143,NA,NA,transfer,NA,NA,You fell the message to Dyanna.,NA,0,3,1,nonsense,s,NA,NA,NA,NA,NA,NA,NA,NA,NA,NA,NA,NA,NA,NA,NA,NA,NA,Yes
2020-11-17T08:15:06Z,2020-11-17T08:15:59Z,IP Address,151.228.161.246,100,52,TRUE,2020-11-17T08:15:59Z,R_3JynOyQinv7BHL1,NA,NA,NA,NA,54.98809814453125,-1.6194000244140625,anonymous,EN,fixation_cross,canvas.Screen,3_14_0,end_fixation,keypress(Space),response,125.05999999999949,9392,9395.98,9411.94,9537,9539,2020-11-17T15:15:19Z,9562.68,141,NA,NA,transfer,NA,NA,Preston snored the frame with you.,NA,0,3,1,nonsense,s,NA,NA,NA,NA,NA,NA,NA,NA,NA,NA,NA,NA,NA,NA,NA,NA,NA,Yes
2020-11-17T08:15:06Z,2020-11-17T08:15:59Z,IP Address,151.228.161.246,100,52,TRUE,2020-11-17T08:15:59Z,R_3JynOyQinv7BHL1,NA,NA,NA,NA,54.98809814453125,-1.6194000244140625,anonymous,EN,sentence_screen,canvas.Screen,3_14_1,press_s,keypress(s),response,114.31999999999971,9540,9545.58,9562.68,9677,9680,2020-11-17T15:15:19Z,9712.66,141,NA,NA,transfer,NA,NA,Preston snored the frame with you.,s,1,3,1,nonsense,s,NA,NA,NA,NA,NA,NA,NA,NA,NA,NA,NA,NA,NA,NA,NA,NA,NA,Yes
2020-11-17T08:15:06Z,2020-11-17T08:15:59Z,IP Address,151.228.161.246,100,52,TRUE,2020-11-17T08:15:59Z,R_3JynOyQinv7BHL1,NA,NA,NA,NA,54.98809814453125,-1.6194000244140625,anonymous,EN,trial,flow.Sequence,3_14,NA,NA,completion,265.0599999999995,9392,9395.98,9411.94,9677,9681,2020-11-17T15:15:19Z,9712.66,141,NA,NA,transfer,NA,NA,Preston snored the frame with you.,NA,0,3,1,nonsense,s,NA,NA,NA,NA,NA,NA,NA,NA,NA,NA,NA,NA,NA,NA,NA,NA,NA,Yes
2020-11-17T08:15:06Z,2020-11-17T08:15:59Z,IP Address,151.228.161.246,100,52,TRUE,2020-11-17T08:15:59Z,R_3JynOyQinv7BHL1,NA,NA,NA,NA,54.98809814453125,-1.6194000244140625,anonymous,EN,fixation_cross,canvas.Screen,3_15_0,end_fixation,keypress(Space),response,64.34000000000015,9682,9695,9712.66,9777,9780,2020-11-17T15:15:19Z,9812.34,169,NA,NA,transfer,NA,NA,Alexandria tasted the soccer ball to you.,NA,0,3,1,nonsense,s,NA,NA,NA,NA,NA,NA,NA,NA,NA,NA,NA,NA,NA,NA,NA,NA,NA,Yes
2020-11-17T08:15:06Z,2020-11-17T08:15:59Z,IP Address,151.228.161.246,100,52,TRUE,2020-11-17T08:15:59Z,R_3JynOyQinv7BHL1,NA,NA,NA,NA,54.98809814453125,-1.6194000244140625,anonymous,EN,sentence_screen,canvas.Screen,3_15_1,press_s,keypress(s),response,61.659999999999854,9781,9796,9812.34,9874,9876,2020-11-17T15:15:19Z,9895.08,169,NA,NA,transfer,NA,NA,Alexandria tasted the soccer ball to you.,s,1,3,1,nonsense,s,NA,NA,NA,NA,NA,NA,NA,NA,NA,NA,NA,NA,NA,NA,NA,NA,NA,Yes
2020-11-17T08:15:06Z,2020-11-17T08:15:59Z,IP Address,151.228.161.246,100,52,TRUE,2020-11-17T08:15:59Z,R_3JynOyQinv7BHL1,NA,NA,NA,NA,54.98809814453125,-1.6194000244140625,anonymous,EN,trial,flow.Sequence,3_15,NA,NA,completion,161.34000000000015,9682,9695,9712.66,9874,9877,2020-11-17T15:15:19Z,9895.08,169,NA,NA,transfer,NA,NA,Alexandria tasted the soccer ball to you.,NA,0,3,1,nonsense,s,NA,NA,NA,NA,NA,NA,NA,NA,NA,NA,NA,NA,NA,NA,NA,NA,NA,Yes
2020-11-17T08:15:06Z,2020-11-17T08:15:59Z,IP Address,151.228.161.246,100,52,TRUE,2020-11-17T08:15:59Z,R_3JynOyQinv7BHL1,NA,NA,NA,NA,54.98809814453125,-1.6194000244140625,anonymous,EN,fixation_cross,canvas.Screen,3_16_0,end_fixation,keypress(Space),response,74.92000000000007,9877,9879.18,9895.08,9970,9972,2020-11-17T15:15:20Z,9996,163,NA,NA,transfer,NA,NA,You hanged honesty with Steven.,NA,0,3,1,nonsense,s,NA,NA,NA,NA,NA,NA,NA,NA,NA,NA,NA,NA,NA,NA,NA,NA,NA,Yes
2020-11-17T08:15:06Z,2020-11-17T08:15:59Z,IP Address,151.228.161.246,100,52,TRUE,2020-11-17T08:15:59Z,R_3JynOyQinv7BHL1,NA,NA,NA,NA,54.98809814453125,-1.6194000244140625,anonymous,EN,sentence_screen,canvas.Screen,3_16_1,press_s,keypress(s),response,65,9973,9979.2,9996,10061,10065,2020-11-17T15:15:20Z,10095.1,163,NA,NA,transfer,NA,NA,You hanged honesty with Steven.,s,1,3,1,nonsense,s,NA,NA,NA,NA,NA,NA,NA,NA,NA,NA,NA,NA,NA,NA,NA,NA,NA,Yes
2020-11-17T08:15:06Z,2020-11-17T08:15:59Z,IP Address,151.228.161.246,100,52,TRUE,2020-11-17T08:15:59Z,R_3JynOyQinv7BHL1,NA,NA,NA,NA,54.98809814453125,-1.6194000244140625,anonymous,EN,trial,flow.Sequence,3_16,NA,NA,completion,165.92000000000007,9877,9879.18,9895.08,10061,10065,2020-11-17T15:15:20Z,10095.1,163,NA,NA,transfer,NA,NA,You hanged honesty with Steven.,NA,0,3,1,nonsense,s,NA,NA,NA,NA,NA,NA,NA,NA,NA,NA,NA,NA,NA,NA,NA,NA,NA,Yes
2020-11-17T08:15:06Z,2020-11-17T08:15:59Z,IP Address,151.228.161.246,100,52,TRUE,2020-11-17T08:15:59Z,R_3JynOyQinv7BHL1,NA,NA,NA,NA,54.98809814453125,-1.6194000244140625,anonymous,EN,fixation_cross,canvas.Screen,3_17_0,end_fixation,keypress(Space),response,61.899999999999636,10065,10078.8,10095.1,10157,10161,2020-11-17T15:15:20Z,10179.18,27,NA,NA,transfer,towards,NA,Haseena dealt the cards to you.,NA,0,3,1,sensible,w,NA,NA,NA,NA,NA,NA,NA,NA,NA,NA,NA,NA,NA,NA,NA,NA,NA,Yes
2020-11-17T08:15:06Z,2020-11-17T08:15:59Z,IP Address,151.228.161.246,100,52,TRUE,2020-11-17T08:15:59Z,R_3JynOyQinv7BHL1,NA,NA,NA,NA,54.98809814453125,-1.6194000244140625,anonymous,EN,sentence_screen,canvas.Screen,3_17_1,press_s,keypress(s),response,64.81999999999971,10161,10161.64,10179.18,10244,10247,2020-11-17T15:15:20Z,10279.18,27,NA,NA,transfer,towards,NA,Haseena dealt the cards to you.,w,0,3,1,sensible,w,NA,NA,NA,NA,NA,NA,NA,NA,NA,NA,NA,NA,NA,NA,NA,NA,NA,Yes
2020-11-17T08:15:06Z,2020-11-17T08:15:59Z,IP Address,151.228.161.246,100,52,TRUE,2020-11-17T08:15:59Z,R_3JynOyQinv7BHL1,NA,NA,NA,NA,54.98809814453125,-1.6194000244140625,anonymous,EN,trial,flow.Sequence,3_17,NA,NA,completion,148.89999999999964,10065,10078.8,10095.1,10244,10247,2020-11-17T15:15:20Z,10279.18,27,NA,NA,transfer,towards,NA,Haseena dealt the cards to you.,NA,0,3,1,sensible,w,NA,NA,NA,NA,NA,NA,NA,NA,NA,NA,NA,NA,NA,NA,NA,NA,NA,Yes
2020-11-17T08:15:06Z,2020-11-17T08:15:59Z,IP Address,151.228.161.246,100,52,TRUE,2020-11-17T08:15:59Z,R_3JynOyQinv7BHL1,NA,NA,NA,NA,54.98809814453125,-1.6194000244140625,anonymous,EN,fixation_cross,canvas.Screen,3_18_0,end_fixation,keypress(Space),response,49.81999999999971,10248,10262.3,10279.18,10329,10332,2020-11-17T15:15:20Z,10361.7,78,NA,NA,no_transfer,NA,NA,Olivia read the orders with you.,NA,0,3,1,sensible,w,NA,NA,NA,NA,NA,NA,NA,NA,NA,NA,NA,NA,NA,NA,NA,NA,NA,Yes
2020-11-17T08:15:06Z,2020-11-17T08:15:59Z,IP Address,151.228.161.246,100,52,TRUE,2020-11-17T08:15:59Z,R_3JynOyQinv7BHL1,NA,NA,NA,NA,54.98809814453125,-1.6194000244140625,anonymous,EN,sentence_screen,canvas.Screen,3_18_1,press_s,keypress(s),response,-0.7000000000007276,10332,10345.54,10361.7,10361,10365,2020-11-17T15:15:20Z,10395.72,78,NA,NA,no_transfer,NA,NA,Olivia read the orders with you.,w,0,3,1,sensible,w,NA,NA,NA,NA,NA,NA,NA,NA,NA,NA,NA,NA,NA,NA,NA,NA,NA,Yes
2020-11-17T08:15:06Z,2020-11-17T08:15:59Z,IP Address,151.228.161.246,100,52,TRUE,2020-11-17T08:15:59Z,R_3JynOyQinv7BHL1,NA,NA,NA,NA,54.98809814453125,-1.6194000244140625,anonymous,EN,trial,flow.Sequence,3_18,NA,NA,completion,81.81999999999971,10247,10262.3,10279.18,10361,10366,2020-11-17T15:15:20Z,10395.72,78,NA,NA,no_transfer,NA,NA,Olivia read the orders with you.,NA,0,3,1,sensible,w,NA,NA,NA,NA,NA,NA,NA,NA,NA,NA,NA,NA,NA,NA,NA,NA,NA,Yes
2020-11-17T08:15:06Z,2020-11-17T08:15:59Z,IP Address,151.228.161.246,100,52,TRUE,2020-11-17T08:15:59Z,R_3JynOyQinv7BHL1,NA,NA,NA,NA,54.98809814453125,-1.6194000244140625,anonymous,EN,fixation_cross,canvas.Screen,3_19_0,end_fixation,keypress(Space),response,113.28000000000065,10366,10379.2,10395.72,10509,10512,2020-11-17T15:15:20Z,10545.58,165,NA,NA,transfer,NA,NA,Wasmaaa parted you the trailer.,NA,0,3,1,nonsense,s,NA,NA,NA,NA,NA,NA,NA,NA,NA,NA,NA,NA,NA,NA,NA,NA,NA,Yes
2020-11-17T08:15:06Z,2020-11-17T08:15:59Z,IP Address,151.228.161.246,100,52,TRUE,2020-11-17T08:15:59Z,R_3JynOyQinv7BHL1,NA,NA,NA,NA,54.98809814453125,-1.6194000244140625,anonymous,EN,sentence_screen,canvas.Screen,3_19_1,press_w,keypress(w),response,59.42000000000007,10513,10529.34,10545.58,10605,10608,2020-11-17T15:15:20Z,10629.2,165,NA,NA,transfer,NA,NA,Wasmaaa parted you the trailer.,s,0,3,1,nonsense,s,NA,NA,NA,NA,NA,NA,NA,NA,NA,NA,NA,NA,NA,NA,NA,NA,NA,Yes
2020-11-17T08:15:06Z,2020-11-17T08:15:59Z,IP Address,151.228.161.246,100,52,TRUE,2020-11-17T08:15:59Z,R_3JynOyQinv7BHL1,NA,NA,NA,NA,54.98809814453125,-1.6194000244140625,anonymous,EN,trial,flow.Sequence,3_19,NA,NA,completion,209.28000000000065,10366,10379.2,10395.72,10605,10609,2020-11-17T15:15:20Z,10629.2,165,NA,NA,transfer,NA,NA,Wasmaaa parted you the trailer.,NA,0,3,1,nonsense,s,NA,NA,NA,NA,NA,NA,NA,NA,NA,NA,NA,NA,NA,NA,NA,NA,NA,Yes
2020-11-17T08:15:06Z,2020-11-17T08:15:59Z,IP Address,151.228.161.246,100,52,TRUE,2020-11-17T08:15:59Z,R_3JynOyQinv7BHL1,NA,NA,NA,NA,54.98809814453125,-1.6194000244140625,anonymous,EN,fixation_cross,canvas.Screen,3_20_0,end_fixation,keypress(Space),response,83.79999999999927,10609,10612.28,10629.2,10713,10716,2020-11-17T15:15:20Z,10745.44,181,NA,NA,transfer,NA,NA,You licked the jacket to Latesha.,NA,0,3,1,nonsense,s,NA,NA,NA,NA,NA,NA,NA,NA,NA,NA,NA,NA,NA,NA,NA,NA,NA,Yes
2020-11-17T08:15:06Z,2020-11-17T08:15:59Z,IP Address,151.228.161.246,100,52,TRUE,2020-11-17T08:15:59Z,R_3JynOyQinv7BHL1,NA,NA,NA,NA,54.98809814453125,-1.6194000244140625,anonymous,EN,sentence_screen,canvas.Screen,3_20_1,press_s,keypress(s),response,230.5599999999995,10716,10729.2,10745.44,10976,10979,2020-11-17T15:15:21Z,11012.16,181,NA,NA,transfer,NA,NA,You licked the jacket to Latesha.,s,1,3,1,nonsense,s,NA,NA,NA,NA,NA,NA,NA,NA,NA,NA,NA,NA,NA,NA,NA,NA,NA,Yes
2020-11-17T08:15:06Z,2020-11-17T08:15:59Z,IP Address,151.228.161.246,100,52,TRUE,2020-11-17T08:15:59Z,R_3JynOyQinv7BHL1,NA,NA,NA,NA,54.98809814453125,-1.6194000244140625,anonymous,EN,trial,flow.Sequence,3_20,NA,NA,completion,346.7999999999993,10609,10612.28,10629.2,10976,10980,2020-11-17T15:15:21Z,11012.16,181,NA,NA,transfer,NA,NA,You licked the jacket to Latesha.,NA,0,3,1,nonsense,s,NA,NA,NA,NA,NA,NA,NA,NA,NA,NA,NA,NA,NA,NA,NA,NA,NA,Yes
2020-11-17T08:15:06Z,2020-11-17T08:15:59Z,IP Address,151.228.161.246,100,52,TRUE,2020-11-17T08:15:59Z,R_3JynOyQinv7BHL1,NA,NA,NA,NA,54.98809814453125,-1.6194000244140625,anonymous,EN,fixation_cross,canvas.Screen,3_21_0,end_fixation,keypress(Space),response,24.840000000000146,10980,10981.32,11012.16,11037,11040,2020-11-17T15:15:21Z,11062.66,34,NA,NA,transfer,away,NA,You kicked the football to Darian.,NA,0,3,1,sensible,w,NA,NA,NA,NA,NA,NA,NA,NA,NA,NA,NA,NA,NA,NA,NA,NA,NA,Yes
2020-11-17T08:15:06Z,2020-11-17T08:15:59Z,IP Address,151.228.161.246,100,52,TRUE,2020-11-17T08:15:59Z,R_3JynOyQinv7BHL1,NA,NA,NA,NA,54.98809814453125,-1.6194000244140625,anonymous,EN,sentence_screen,canvas.Screen,3_21_1,press_s,keypress(s),response,113.34000000000015,11041,11046,11062.66,11176,11179,2020-11-17T15:15:21Z,11212.16,34,NA,NA,transfer,away,NA,You kicked the football to Darian.,w,0,3,1,sensible,w,NA,NA,NA,NA,NA,NA,NA,NA,NA,NA,NA,NA,NA,NA,NA,NA,NA,Yes
2020-11-17T08:15:06Z,2020-11-17T08:15:59Z,IP Address,151.228.161.246,100,52,TRUE,2020-11-17T08:15:59Z,R_3JynOyQinv7BHL1,NA,NA,NA,NA,54.98809814453125,-1.6194000244140625,anonymous,EN,trial,flow.Sequence,3_21,NA,NA,completion,163.84000000000015,10980,10981.32,11012.16,11176,11180,2020-11-17T15:15:21Z,11212.16,34,NA,NA,transfer,away,NA,You kicked the football to Darian.,NA,0,3,1,sensible,w,NA,NA,NA,NA,NA,NA,NA,NA,NA,NA,NA,NA,NA,NA,NA,NA,NA,Yes
2020-11-17T08:15:06Z,2020-11-17T08:15:59Z,IP Address,151.228.161.246,100,52,TRUE,2020-11-17T08:15:59Z,R_3JynOyQinv7BHL1,NA,NA,NA,NA,54.98809814453125,-1.6194000244140625,anonymous,EN,fixation_cross,canvas.Screen,3_22_0,end_fixation,keypress(Space),response,79.84000000000015,11180,11196,11212.16,11292,11296,2020-11-17T15:15:21Z,11329.34,159,NA,NA,transfer,NA,NA,You sunk Angelo the monitor.,NA,0,3,1,nonsense,s,NA,NA,NA,NA,NA,NA,NA,NA,NA,NA,NA,NA,NA,NA,NA,NA,NA,Yes
2020-11-17T08:15:06Z,2020-11-17T08:15:59Z,IP Address,151.228.161.246,100,52,TRUE,2020-11-17T08:15:59Z,R_3JynOyQinv7BHL1,NA,NA,NA,NA,54.98809814453125,-1.6194000244140625,anonymous,EN,sentence_screen,canvas.Screen,3_22_1,press_w,keypress(w),response,100.65999999999985,11297,11312.68,11329.34,11430,11432,2020-11-17T15:15:21Z,11462.7,159,NA,NA,transfer,NA,NA,You sunk Angelo the monitor.,s,0,3,1,nonsense,s,NA,NA,NA,NA,NA,NA,NA,NA,NA,NA,NA,NA,NA,NA,NA,NA,NA,Yes
2020-11-17T08:15:06Z,2020-11-17T08:15:59Z,IP Address,151.228.161.246,100,52,TRUE,2020-11-17T08:15:59Z,R_3JynOyQinv7BHL1,NA,NA,NA,NA,54.98809814453125,-1.6194000244140625,anonymous,EN,trial,flow.Sequence,3_22,NA,NA,completion,217.84000000000015,11180,11196,11212.16,11430,11433,2020-11-17T15:15:21Z,11462.7,159,NA,NA,transfer,NA,NA,You sunk Angelo the monitor.,NA,0,3,1,nonsense,s,NA,NA,NA,NA,NA,NA,NA,NA,NA,NA,NA,NA,NA,NA,NA,NA,NA,Yes
2020-11-17T08:15:06Z,2020-11-17T08:15:59Z,IP Address,151.228.161.246,100,52,TRUE,2020-11-17T08:15:59Z,R_3JynOyQinv7BHL1,NA,NA,NA,NA,54.98809814453125,-1.6194000244140625,anonymous,EN,fixation_cross,canvas.Screen,3_23_0,end_fixation,keypress(Space),response,73.29999999999927,11433,11445.3,11462.7,11536,11539,2020-11-17T15:15:21Z,11562.7,32,NA,NA,transfer,away,NA,You rolled Jennifer the marble.,NA,0,3,1,sensible,w,NA,NA,NA,NA,NA,NA,NA,NA,NA,NA,NA,NA,NA,NA,NA,NA,NA,Yes
2020-11-17T08:15:06Z,2020-11-17T08:15:59Z,IP Address,151.228.161.246,100,52,TRUE,2020-11-17T08:15:59Z,R_3JynOyQinv7BHL1,NA,NA,NA,NA,54.98809814453125,-1.6194000244140625,anonymous,EN,sentence_screen,canvas.Screen,3_23_1,press_w,keypress(w),response,129.29999999999927,11539,11545.56,11562.7,11692,11695,2020-11-17T15:15:21Z,11729.2,32,NA,NA,transfer,away,NA,You rolled Jennifer the marble.,w,1,3,1,sensible,w,NA,NA,NA,NA,NA,NA,NA,NA,NA,NA,NA,NA,NA,NA,NA,NA,NA,Yes
2020-11-17T08:15:06Z,2020-11-17T08:15:59Z,IP Address,151.228.161.246,100,52,TRUE,2020-11-17T08:15:59Z,R_3JynOyQinv7BHL1,NA,NA,NA,NA,54.98809814453125,-1.6194000244140625,anonymous,EN,trial,flow.Sequence,3_23,NA,NA,completion,229.29999999999927,11433,11445.3,11462.7,11692,11696,2020-11-17T15:15:21Z,11729.2,32,NA,NA,transfer,away,NA,You rolled Jennifer the marble.,NA,0,3,1,sensible,w,NA,NA,NA,NA,NA,NA,NA,NA,NA,NA,NA,NA,NA,NA,NA,NA,NA,Yes
2020-11-17T08:15:06Z,2020-11-17T08:15:59Z,IP Address,151.228.161.246,100,52,TRUE,2020-11-17T08:15:59Z,R_3JynOyQinv7BHL1,NA,NA,NA,NA,54.98809814453125,-1.6194000244140625,anonymous,EN,fixation_cross,canvas.Screen,3_24_0,end_fixation,keypress(Space),response,38.79999999999927,11696,11712.72,11729.2,11768,11771,2020-11-17T15:15:21Z,11796.1,187,NA,NA,transfer,NA,NA,Xandria pounded you the sunglasses.,NA,0,3,1,nonsense,s,NA,NA,NA,NA,NA,NA,NA,NA,NA,NA,NA,NA,NA,NA,NA,NA,NA,Yes
2020-11-17T08:15:06Z,2020-11-17T08:15:59Z,IP Address,151.228.161.246,100,52,TRUE,2020-11-17T08:15:59Z,R_3JynOyQinv7BHL1,NA,NA,NA,NA,54.98809814453125,-1.6194000244140625,anonymous,EN,sentence_screen,canvas.Screen,3_24_1,press_w,keypress(w),response,79.89999999999964,11772,11779.2,11796.1,11876,11879,2020-11-17T15:15:21Z,11912.7,187,NA,NA,transfer,NA,NA,Xandria pounded you the sunglasses.,s,0,3,1,nonsense,s,NA,NA,NA,NA,NA,NA,NA,NA,NA,NA,NA,NA,NA,NA,NA,NA,NA,Yes
2020-11-17T08:15:06Z,2020-11-17T08:15:59Z,IP Address,151.228.161.246,100,52,TRUE,2020-11-17T08:15:59Z,R_3JynOyQinv7BHL1,NA,NA,NA,NA,54.98809814453125,-1.6194000244140625,anonymous,EN,trial,flow.Sequence,3_24,NA,NA,completion,146.79999999999927,11696,11712.72,11729.2,11876,11880,2020-11-17T15:15:21Z,11912.7,187,NA,NA,transfer,NA,NA,Xandria pounded you the sunglasses.,NA,0,3,1,nonsense,s,NA,NA,NA,NA,NA,NA,NA,NA,NA,NA,NA,NA,NA,NA,NA,NA,NA,Yes
2020-11-17T08:15:06Z,2020-11-17T08:15:59Z,IP Address,151.228.161.246,100,52,TRUE,2020-11-17T08:15:59Z,R_3JynOyQinv7BHL1,NA,NA,NA,NA,54.98809814453125,-1.6194000244140625,anonymous,EN,fixation_cross,canvas.Screen,3_25_0,end_fixation,keypress(Space),response,60.29999999999927,11880,11895.12,11912.7,11973,11976,2020-11-17T15:15:22Z,11996.06,39,NA,NA,transfer,towards,NA,Calvin hit you the baseball.,NA,0,3,1,sensible,w,NA,NA,NA,NA,NA,NA,NA,NA,NA,NA,NA,NA,NA,NA,NA,NA,NA,Yes
2020-11-17T08:15:06Z,2020-11-17T08:15:59Z,IP Address,151.228.161.246,100,52,TRUE,2020-11-17T08:15:59Z,R_3JynOyQinv7BHL1,NA,NA,NA,NA,54.98809814453125,-1.6194000244140625,anonymous,EN,sentence_screen,canvas.Screen,3_25_1,press_w,keypress(w),response,55.94000000000051,11977,11979.24,11996.06,12052,12055,2020-11-17T15:15:22Z,12078.82,39,NA,NA,transfer,towards,NA,Calvin hit you the baseball.,w,1,3,1,sensible,w,NA,NA,NA,NA,NA,NA,NA,NA,NA,NA,NA,NA,NA,NA,NA,NA,NA,Yes
2020-11-17T08:15:06Z,2020-11-17T08:15:59Z,IP Address,151.228.161.246,100,52,TRUE,2020-11-17T08:15:59Z,R_3JynOyQinv7BHL1,NA,NA,NA,NA,54.98809814453125,-1.6194000244140625,anonymous,EN,trial,flow.Sequence,3_25,NA,NA,completion,139.29999999999927,11880,11895.12,11912.7,12052,12055,2020-11-17T15:15:22Z,12078.82,39,NA,NA,transfer,towards,NA,Calvin hit you the baseball.,NA,0,3,1,sensible,w,NA,NA,NA,NA,NA,NA,NA,NA,NA,NA,NA,NA,NA,NA,NA,NA,NA,Yes
2020-11-17T08:15:06Z,2020-11-17T08:15:59Z,IP Address,151.228.161.246,100,52,TRUE,2020-11-17T08:15:59Z,R_3JynOyQinv7BHL1,NA,NA,NA,NA,54.98809814453125,-1.6194000244140625,anonymous,EN,fixation_cross,canvas.Screen,3_26_0,end_fixation,keypress(Space),response,101.18000000000029,12056,12062.68,12078.82,12180,12236,2020-11-17T15:15:22Z,12278.72,76,NA,NA,no_transfer,NA,NA,Madison watched football with you.,NA,0,3,1,sensible,w,NA,NA,NA,NA,NA,NA,NA,NA,NA,NA,NA,NA,NA,NA,NA,NA,NA,Yes
2020-11-17T08:15:06Z,2020-11-17T08:15:59Z,IP Address,151.228.161.246,100,52,TRUE,2020-11-17T08:15:59Z,R_3JynOyQinv7BHL1,NA,NA,NA,NA,54.98809814453125,-1.6194000244140625,anonymous,EN,sentence_screen,canvas.Screen,3_26_1,press_w,keypress(w),response,NA,12236,NA,NA,12232,12238,2020-11-17T15:15:22Z,12278.72,76,NA,NA,no_transfer,NA,NA,Madison watched football with you.,w,1,3,1,sensible,w,NA,NA,NA,NA,NA,NA,NA,NA,NA,NA,NA,NA,NA,NA,NA,NA,NA,Yes
2020-11-17T08:15:06Z,2020-11-17T08:15:59Z,IP Address,151.228.161.246,100,52,TRUE,2020-11-17T08:15:59Z,R_3JynOyQinv7BHL1,NA,NA,NA,NA,54.98809814453125,-1.6194000244140625,anonymous,EN,trial,flow.Sequence,3_26,NA,NA,completion,153.1800000000003,12055,12062.68,12078.82,12232,12238,2020-11-17T15:15:22Z,12278.72,76,NA,NA,no_transfer,NA,NA,Madison watched football with you.,NA,0,3,1,sensible,w,NA,NA,NA,NA,NA,NA,NA,NA,NA,NA,NA,NA,NA,NA,NA,NA,NA,Yes
2020-11-17T08:15:06Z,2020-11-17T08:15:59Z,IP Address,151.228.161.246,100,52,TRUE,2020-11-17T08:15:59Z,R_3JynOyQinv7BHL1,NA,NA,NA,NA,54.98809814453125,-1.6194000244140625,anonymous,EN,fixation_cross,canvas.Screen,3_27_0,end_fixation,keypress(Space),response,138.28000000000065,12238,12245.9,12278.72,12417,12419,2020-11-17T15:15:22Z,12446.06,80,NA,NA,no_transfer,NA,NA,Ernesto wrote the note with you.,NA,0,3,1,sensible,w,NA,NA,NA,NA,NA,NA,NA,NA,NA,NA,NA,NA,NA,NA,NA,NA,NA,Yes
2020-11-17T08:15:06Z,2020-11-17T08:15:59Z,IP Address,151.228.161.246,100,52,TRUE,2020-11-17T08:15:59Z,R_3JynOyQinv7BHL1,NA,NA,NA,NA,54.98809814453125,-1.6194000244140625,anonymous,EN,sentence_screen,canvas.Screen,3_27_1,press_s,keypress(s),response,93.94000000000051,12419,12429.22,12446.06,12540,12543,2020-11-17T15:15:22Z,12561.8,80,NA,NA,no_transfer,NA,NA,Ernesto wrote the note with you.,w,0,3,1,sensible,w,NA,NA,NA,NA,NA,NA,NA,NA,NA,NA,NA,NA,NA,NA,NA,NA,NA,Yes
2020-11-17T08:15:06Z,2020-11-17T08:15:59Z,IP Address,151.228.161.246,100,52,TRUE,2020-11-17T08:15:59Z,R_3JynOyQinv7BHL1,NA,NA,NA,NA,54.98809814453125,-1.6194000244140625,anonymous,EN,trial,flow.Sequence,3_27,NA,NA,completion,261.28000000000065,12238,12245.9,12278.72,12540,12544,2020-11-17T15:15:22Z,12561.8,80,NA,NA,no_transfer,NA,NA,Ernesto wrote the note with you.,NA,0,3,1,sensible,w,NA,NA,NA,NA,NA,NA,NA,NA,NA,NA,NA,NA,NA,NA,NA,NA,NA,Yes
2020-11-17T08:15:06Z,2020-11-17T08:15:59Z,IP Address,151.228.161.246,100,52,TRUE,2020-11-17T08:15:59Z,R_3JynOyQinv7BHL1,NA,NA,NA,NA,54.98809814453125,-1.6194000244140625,anonymous,EN,fixation_cross,canvas.Screen,3_28_0,end_fixation,keypress(Space),response,127.20000000000073,12544,12545.5,12561.8,12689,12692,2020-11-17T15:15:22Z,12711.88,28,NA,NA,transfer,away,NA,You forked over the cash to Wajdi,NA,0,3,1,sensible,w,NA,NA,NA,NA,NA,NA,NA,NA,NA,NA,NA,NA,NA,NA,NA,NA,NA,Yes
2020-11-17T08:15:06Z,2020-11-17T08:15:59Z,IP Address,151.228.161.246,100,52,TRUE,2020-11-17T08:15:59Z,R_3JynOyQinv7BHL1,NA,NA,NA,NA,54.98809814453125,-1.6194000244140625,anonymous,EN,sentence_screen,canvas.Screen,3_28_1,press_s,keypress(s),response,104.1200000000008,12693,12696.02,12711.88,12816,12820,2020-11-17T15:15:22Z,12846.06,28,NA,NA,transfer,away,NA,You forked over the cash to Wajdi,w,0,3,1,sensible,w,NA,NA,NA,NA,NA,NA,NA,NA,NA,NA,NA,NA,NA,NA,NA,NA,NA,Yes
2020-11-17T08:15:06Z,2020-11-17T08:15:59Z,IP Address,151.228.161.246,100,52,TRUE,2020-11-17T08:15:59Z,R_3JynOyQinv7BHL1,NA,NA,NA,NA,54.98809814453125,-1.6194000244140625,anonymous,EN,trial,flow.Sequence,3_28,NA,NA,completion,254.20000000000073,12544,12545.5,12561.8,12816,12820,2020-11-17T15:15:22Z,12846.06,28,NA,NA,transfer,away,NA,You forked over the cash to Wajdi,NA,0,3,1,sensible,w,NA,NA,NA,NA,NA,NA,NA,NA,NA,NA,NA,NA,NA,NA,NA,NA,NA,Yes
2020-11-17T08:15:06Z,2020-11-17T08:15:59Z,IP Address,151.228.161.246,100,52,TRUE,2020-11-17T08:15:59Z,R_3JynOyQinv7BHL1,NA,NA,NA,NA,54.98809814453125,-1.6194000244140625,anonymous,EN,fixation_cross,canvas.Screen,3_29_0,end_fixation,keypress(Space),response,121.94000000000051,12820,12829.2,12846.06,12968,12971,2020-11-17T15:15:23Z,12996,72,NA,NA,no_transfer,NA,NA,Jannet ducked responsibility with you.,NA,0,3,1,sensible,w,NA,NA,NA,NA,NA,NA,NA,NA,NA,NA,NA,NA,NA,NA,NA,NA,NA,Yes
2020-11-17T08:15:06Z,2020-11-17T08:15:59Z,IP Address,151.228.161.246,100,52,TRUE,2020-11-17T08:15:59Z,R_3JynOyQinv7BHL1,NA,NA,NA,NA,54.98809814453125,-1.6194000244140625,anonymous,EN,sentence_screen,canvas.Screen,3_29_1,press_s,keypress(s),response,84,12972,12979.18,12996,13080,13083,2020-11-17T15:15:23Z,13111.92,72,NA,NA,no_transfer,NA,NA,Jannet ducked responsibility with you.,w,0,3,1,sensible,w,NA,NA,NA,NA,NA,NA,NA,NA,NA,NA,NA,NA,NA,NA,NA,NA,NA,Yes
2020-11-17T08:15:06Z,2020-11-17T08:15:59Z,IP Address,151.228.161.246,100,52,TRUE,2020-11-17T08:15:59Z,R_3JynOyQinv7BHL1,NA,NA,NA,NA,54.98809814453125,-1.6194000244140625,anonymous,EN,trial,flow.Sequence,3_29,NA,NA,completion,233.9400000000005,12820,12829.2,12846.06,13080,13083,2020-11-17T15:15:23Z,13111.92,72,NA,NA,no_transfer,NA,NA,Jannet ducked responsibility with you.,NA,0,3,1,sensible,w,NA,NA,NA,NA,NA,NA,NA,NA,NA,NA,NA,NA,NA,NA,NA,NA,NA,Yes
2020-11-17T08:15:06Z,2020-11-17T08:15:59Z,IP Address,151.228.161.246,100,52,TRUE,2020-11-17T08:15:59Z,R_3JynOyQinv7BHL1,NA,NA,NA,NA,54.98809814453125,-1.6194000244140625,anonymous,EN,fixation_cross,canvas.Screen,3_30_0,end_fixation,keypress(Space),response,88.07999999999993,13083,13096.04,13111.92,13200,13203,2020-11-17T15:15:23Z,13229.2,74,NA,NA,no_transfer,NA,NA,Jia read the story about you.,NA,0,3,1,sensible,w,NA,NA,NA,NA,NA,NA,NA,NA,NA,NA,NA,NA,NA,NA,NA,NA,NA,Yes
2020-11-17T08:15:06Z,2020-11-17T08:15:59Z,IP Address,151.228.161.246,100,52,TRUE,2020-11-17T08:15:59Z,R_3JynOyQinv7BHL1,NA,NA,NA,NA,54.98809814453125,-1.6194000244140625,anonymous,EN,sentence_screen,canvas.Screen,3_30_1,press_s,keypress(s),response,63.79999999999927,13203,13212.24,13229.2,13293,13296,2020-11-17T15:15:23Z,13329.22,74,NA,NA,no_transfer,NA,NA,Jia read the story about you.,w,0,3,1,sensible,w,NA,NA,NA,NA,NA,NA,NA,NA,NA,NA,NA,NA,NA,NA,NA,NA,NA,Yes
2020-11-17T08:15:06Z,2020-11-17T08:15:59Z,IP Address,151.228.161.246,100,52,TRUE,2020-11-17T08:15:59Z,R_3JynOyQinv7BHL1,NA,NA,NA,NA,54.98809814453125,-1.6194000244140625,anonymous,EN,trial,flow.Sequence,3_30,NA,NA,completion,181.07999999999993,13083,13096.04,13111.92,13293,13296,2020-11-17T15:15:23Z,13329.22,74,NA,NA,no_transfer,NA,NA,Jia read the story about you.,NA,0,3,1,sensible,w,NA,NA,NA,NA,NA,NA,NA,NA,NA,NA,NA,NA,NA,NA,NA,NA,NA,Yes
2020-11-17T08:15:06Z,2020-11-17T08:15:59Z,IP Address,151.228.161.246,100,52,TRUE,2020-11-17T08:15:59Z,R_3JynOyQinv7BHL1,NA,NA,NA,NA,54.98809814453125,-1.6194000244140625,anonymous,EN,fixation_cross,canvas.Screen,3_31_0,end_fixation,keypress(Space),response,87.78000000000065,13296,13312.72,13329.22,13417,13420,2020-11-17T15:15:23Z,13446.06,183,NA,NA,transfer,NA,NA,Justin stapled the song with you.,NA,0,3,1,nonsense,s,NA,NA,NA,NA,NA,NA,NA,NA,NA,NA,NA,NA,NA,NA,NA,NA,NA,Yes
2020-11-17T08:15:06Z,2020-11-17T08:15:59Z,IP Address,151.228.161.246,100,52,TRUE,2020-11-17T08:15:59Z,R_3JynOyQinv7BHL1,NA,NA,NA,NA,54.98809814453125,-1.6194000244140625,anonymous,EN,sentence_screen,canvas.Screen,3_31_1,press_s,keypress(s),response,81.94000000000051,13420,13429.2,13446.06,13528,13532,2020-11-17T15:15:23Z,13562.72,183,NA,NA,transfer,NA,NA,Justin stapled the song with you.,s,1,3,1,nonsense,s,NA,NA,NA,NA,NA,NA,NA,NA,NA,NA,NA,NA,NA,NA,NA,NA,NA,Yes
2020-11-17T08:15:06Z,2020-11-17T08:15:59Z,IP Address,151.228.161.246,100,52,TRUE,2020-11-17T08:15:59Z,R_3JynOyQinv7BHL1,NA,NA,NA,NA,54.98809814453125,-1.6194000244140625,anonymous,EN,trial,flow.Sequence,3_31,NA,NA,completion,198.78000000000065,13296,13312.72,13329.22,13528,13532,2020-11-17T15:15:23Z,13562.72,183,NA,NA,transfer,NA,NA,Justin stapled the song with you.,NA,0,3,1,nonsense,s,NA,NA,NA,NA,NA,NA,NA,NA,NA,NA,NA,NA,NA,NA,NA,NA,NA,Yes
2020-11-17T08:15:06Z,2020-11-17T08:15:59Z,IP Address,151.228.161.246,100,52,TRUE,2020-11-17T08:15:59Z,R_3JynOyQinv7BHL1,NA,NA,NA,NA,54.98809814453125,-1.6194000244140625,anonymous,EN,fixation_cross,canvas.Screen,3_32_0,end_fixation,keypress(Space),response,105.28000000000065,13533,13545.46,13562.72,13668,13672,2020-11-17T15:15:23Z,13696.12,33,NA,NA,transfer,towards,NA,Gregory slipped you a note.,NA,0,3,1,sensible,w,NA,NA,NA,NA,NA,NA,NA,NA,NA,NA,NA,NA,NA,NA,NA,NA,NA,Yes
2020-11-17T08:15:06Z,2020-11-17T08:15:59Z,IP Address,151.228.161.246,100,52,TRUE,2020-11-17T08:15:59Z,R_3JynOyQinv7BHL1,NA,NA,NA,NA,54.98809814453125,-1.6194000244140625,anonymous,EN,sentence_screen,canvas.Screen,3_32_1,press_s,keypress(s),response,82.8799999999992,13672,13679.18,13696.12,13779,13783,2020-11-17T15:15:23Z,13812.22,33,NA,NA,transfer,towards,NA,Gregory slipped you a note.,w,0,3,1,sensible,w,NA,NA,NA,NA,NA,NA,NA,NA,NA,NA,NA,NA,NA,NA,NA,NA,NA,Yes
2020-11-17T08:15:06Z,2020-11-17T08:15:59Z,IP Address,151.228.161.246,100,52,TRUE,2020-11-17T08:15:59Z,R_3JynOyQinv7BHL1,NA,NA,NA,NA,54.98809814453125,-1.6194000244140625,anonymous,EN,trial,flow.Sequence,3_32,NA,NA,completion,216.28000000000065,13532,13545.46,13562.72,13779,13783,2020-11-17T15:15:23Z,13812.22,33,NA,NA,transfer,towards,NA,Gregory slipped you a note.,NA,0,3,1,sensible,w,NA,NA,NA,NA,NA,NA,NA,NA,NA,NA,NA,NA,NA,NA,NA,NA,NA,Yes
2020-11-17T08:15:06Z,2020-11-17T08:15:59Z,IP Address,151.228.161.246,100,52,TRUE,2020-11-17T08:15:59Z,R_3JynOyQinv7BHL1,NA,NA,NA,NA,54.98809814453125,-1.6194000244140625,anonymous,EN,fixation_cross,canvas.Screen,3_33_0,end_fixation,keypress(Space),response,99.78000000000065,13784,13796.1,13812.22,13912,13916,2020-11-17T15:15:24Z,13945.68,153,NA,NA,transfer,NA,NA,Christopher ate the regards to you.,NA,0,3,1,nonsense,s,NA,NA,NA,NA,NA,NA,NA,NA,NA,NA,NA,NA,NA,NA,NA,NA,NA,Yes
2020-11-17T08:15:06Z,2020-11-17T08:15:59Z,IP Address,151.228.161.246,100,52,TRUE,2020-11-17T08:15:59Z,R_3JynOyQinv7BHL1,NA,NA,NA,NA,54.98809814453125,-1.6194000244140625,anonymous,EN,sentence_screen,canvas.Screen,3_33_1,press_w,keypress(w),response,82.31999999999971,13916,13929.28,13945.68,14028,14032,2020-11-17T15:15:24Z,14062.76,153,NA,NA,transfer,NA,NA,Christopher ate the regards to you.,s,0,3,1,nonsense,s,NA,NA,NA,NA,NA,NA,NA,NA,NA,NA,NA,NA,NA,NA,NA,NA,NA,Yes
2020-11-17T08:15:06Z,2020-11-17T08:15:59Z,IP Address,151.228.161.246,100,52,TRUE,2020-11-17T08:15:59Z,R_3JynOyQinv7BHL1,NA,NA,NA,NA,54.98809814453125,-1.6194000244140625,anonymous,EN,trial,flow.Sequence,3_33,NA,NA,completion,215.78000000000065,13784,13796.1,13812.22,14028,14032,2020-11-17T15:15:24Z,14062.76,153,NA,NA,transfer,NA,NA,Christopher ate the regards to you.,NA,0,3,1,nonsense,s,NA,NA,NA,NA,NA,NA,NA,NA,NA,NA,NA,NA,NA,NA,NA,NA,NA,Yes
2020-11-17T08:15:06Z,2020-11-17T08:15:59Z,IP Address,151.228.161.246,100,52,TRUE,2020-11-17T08:15:59Z,R_3JynOyQinv7BHL1,NA,NA,NA,NA,54.98809814453125,-1.6194000244140625,anonymous,EN,fixation_cross,canvas.Screen,3_34_0,end_fixation,keypress(Space),response,101.23999999999978,14032,14046.08,14062.76,14164,14168,2020-11-17T15:15:24Z,14196.1,21,NA,NA,transfer,towards,NA,Leandra threw you a pen.,NA,0,3,1,sensible,w,NA,NA,NA,NA,NA,NA,NA,NA,NA,NA,NA,NA,NA,NA,NA,NA,NA,Yes
2020-11-17T08:15:06Z,2020-11-17T08:15:59Z,IP Address,151.228.161.246,100,52,TRUE,2020-11-17T08:15:59Z,R_3JynOyQinv7BHL1,NA,NA,NA,NA,54.98809814453125,-1.6194000244140625,anonymous,EN,sentence_screen,canvas.Screen,3_34_1,press_w,keypress(w),response,71.89999999999964,14168,14179.32,14196.1,14268,14271,2020-11-17T15:15:24Z,14296.08,21,NA,NA,transfer,towards,NA,Leandra threw you a pen.,w,1,3,1,sensible,w,NA,NA,NA,NA,NA,NA,NA,NA,NA,NA,NA,NA,NA,NA,NA,NA,NA,Yes
2020-11-17T08:15:06Z,2020-11-17T08:15:59Z,IP Address,151.228.161.246,100,52,TRUE,2020-11-17T08:15:59Z,R_3JynOyQinv7BHL1,NA,NA,NA,NA,54.98809814453125,-1.6194000244140625,anonymous,EN,trial,flow.Sequence,3_34,NA,NA,completion,205.23999999999978,14032,14046.08,14062.76,14268,14271,2020-11-17T15:15:24Z,14296.08,21,NA,NA,transfer,towards,NA,Leandra threw you a pen.,NA,0,3,1,sensible,w,NA,NA,NA,NA,NA,NA,NA,NA,NA,NA,NA,NA,NA,NA,NA,NA,NA,Yes
2020-11-17T08:15:06Z,2020-11-17T08:15:59Z,IP Address,151.228.161.246,100,52,TRUE,2020-11-17T08:15:59Z,R_3JynOyQinv7BHL1,NA,NA,NA,NA,54.98809814453125,-1.6194000244140625,anonymous,EN,fixation_cross,canvas.Screen,3_35_0,end_fixation,keypress(Space),response,91.92000000000007,14272,14279.2,14296.08,14388,14391,2020-11-17T15:15:24Z,14412.14,171,NA,NA,transfer,NA,NA,You smelled the song with Tahvia.,NA,0,3,1,nonsense,s,NA,NA,NA,NA,NA,NA,NA,NA,NA,NA,NA,NA,NA,NA,NA,NA,NA,Yes
2020-11-17T08:15:06Z,2020-11-17T08:15:59Z,IP Address,151.228.161.246,100,52,TRUE,2020-11-17T08:15:59Z,R_3JynOyQinv7BHL1,NA,NA,NA,NA,54.98809814453125,-1.6194000244140625,anonymous,EN,sentence_screen,canvas.Screen,3_35_1,press_w,keypress(w),response,71.86000000000058,14392,14396.06,14412.14,14484,14488,2020-11-17T15:15:24Z,14512.74,171,NA,NA,transfer,NA,NA,You smelled the song with Tahvia.,s,0,3,1,nonsense,s,NA,NA,NA,NA,NA,NA,NA,NA,NA,NA,NA,NA,NA,NA,NA,NA,NA,Yes
2020-11-17T08:15:06Z,2020-11-17T08:15:59Z,IP Address,151.228.161.246,100,52,TRUE,2020-11-17T08:15:59Z,R_3JynOyQinv7BHL1,NA,NA,NA,NA,54.98809814453125,-1.6194000244140625,anonymous,EN,trial,flow.Sequence,3_35,NA,NA,completion,187.92000000000007,14272,14279.2,14296.08,14484,14488,2020-11-17T15:15:24Z,14512.74,171,NA,NA,transfer,NA,NA,You smelled the song with Tahvia.,NA,0,3,1,nonsense,s,NA,NA,NA,NA,NA,NA,NA,NA,NA,NA,NA,NA,NA,NA,NA,NA,NA,Yes
2020-11-17T08:15:06Z,2020-11-17T08:15:59Z,IP Address,151.228.161.246,100,52,TRUE,2020-11-17T08:15:59Z,R_3JynOyQinv7BHL1,NA,NA,NA,NA,54.98809814453125,-1.6194000244140625,anonymous,EN,fixation_cross,canvas.Screen,3_36_0,end_fixation,keypress(Space),response,103.26000000000022,14488,14496.06,14512.74,14616,14619,2020-11-17T15:15:24Z,14646.06,197,NA,NA,transfer,NA,NA,You tore Rachel the shoe.,NA,0,3,1,nonsense,s,NA,NA,NA,NA,NA,NA,NA,NA,NA,NA,NA,NA,NA,NA,NA,NA,NA,Yes
2020-11-17T08:15:06Z,2020-11-17T08:15:59Z,IP Address,151.228.161.246,100,52,TRUE,2020-11-17T08:15:59Z,R_3JynOyQinv7BHL1,NA,NA,NA,NA,54.98809814453125,-1.6194000244140625,anonymous,EN,sentence_screen,canvas.Screen,3_36_1,press_w,keypress(w),response,33.94000000000051,14620,14629.2,14646.06,14680,14684,2020-11-17T15:15:24Z,14712.74,197,NA,NA,transfer,NA,NA,You tore Rachel the shoe.,s,0,3,1,nonsense,s,NA,NA,NA,NA,NA,NA,NA,NA,NA,NA,NA,NA,NA,NA,NA,NA,NA,Yes
2020-11-17T08:15:06Z,2020-11-17T08:15:59Z,IP Address,151.228.161.246,100,52,TRUE,2020-11-17T08:15:59Z,R_3JynOyQinv7BHL1,NA,NA,NA,NA,54.98809814453125,-1.6194000244140625,anonymous,EN,trial,flow.Sequence,3_36,NA,NA,completion,167.26000000000022,14488,14496.06,14512.74,14680,14684,2020-11-17T15:15:24Z,14712.74,197,NA,NA,transfer,NA,NA,You tore Rachel the shoe.,NA,0,3,1,nonsense,s,NA,NA,NA,NA,NA,NA,NA,NA,NA,NA,NA,NA,NA,NA,NA,NA,NA,Yes
2020-11-17T08:15:06Z,2020-11-17T08:15:59Z,IP Address,151.228.161.246,100,52,TRUE,2020-11-17T08:15:59Z,R_3JynOyQinv7BHL1,NA,NA,NA,NA,54.98809814453125,-1.6194000244140625,anonymous,EN,fixation_cross,canvas.Screen,3_37_0,end_fixation,keypress(Space),response,111.26000000000022,14684,14696.08,14712.74,14824,14828,2020-11-17T15:15:24Z,14845.24,175,NA,NA,transfer,NA,NA,Fawz joked the ice cream to you.,NA,0,3,1,nonsense,s,NA,NA,NA,NA,NA,NA,NA,NA,NA,NA,NA,NA,NA,NA,NA,NA,NA,Yes
2020-11-17T08:15:06Z,2020-11-17T08:15:59Z,IP Address,151.228.161.246,100,52,TRUE,2020-11-17T08:15:59Z,R_3JynOyQinv7BHL1,NA,NA,NA,NA,54.98809814453125,-1.6194000244140625,anonymous,EN,sentence_screen,canvas.Screen,3_37_1,press_w,keypress(w),response,-1.2399999999997817,14828,14829.2,14845.24,14844,14849,2020-11-17T15:15:24Z,14879.18,175,NA,NA,transfer,NA,NA,Fawz joked the ice cream to you.,s,0,3,1,nonsense,s,NA,NA,NA,NA,NA,NA,NA,NA,NA,NA,NA,NA,NA,NA,NA,NA,NA,Yes
2020-11-17T08:15:06Z,2020-11-17T08:15:59Z,IP Address,151.228.161.246,100,52,TRUE,2020-11-17T08:15:59Z,R_3JynOyQinv7BHL1,NA,NA,NA,NA,54.98809814453125,-1.6194000244140625,anonymous,EN,trial,flow.Sequence,3_37,NA,NA,completion,131.26000000000022,14684,14696.08,14712.74,14844,14849,2020-11-17T15:15:24Z,14879.18,175,NA,NA,transfer,NA,NA,Fawz joked the ice cream to you.,NA,0,3,1,nonsense,s,NA,NA,NA,NA,NA,NA,NA,NA,NA,NA,NA,NA,NA,NA,NA,NA,NA,Yes
2020-11-17T08:15:06Z,2020-11-17T08:15:59Z,IP Address,151.228.161.246,100,52,TRUE,2020-11-17T08:15:59Z,R_3JynOyQinv7BHL1,NA,NA,NA,NA,54.98809814453125,-1.6194000244140625,anonymous,EN,fixation_cross,canvas.Screen,3_38_0,end_fixation,keypress(Space),response,236.8199999999997,14849,14862.72,14879.18,15116,15120,2020-11-17T15:15:25Z,15161.72,36,NA,NA,transfer,away,NA,You delivered the pizza to Natalie.,NA,0,3,1,sensible,w,NA,NA,NA,NA,NA,NA,NA,NA,NA,NA,NA,NA,NA,NA,NA,NA,NA,Yes
2020-11-17T08:15:06Z,2020-11-17T08:15:59Z,IP Address,151.228.161.246,100,52,TRUE,2020-11-17T08:15:59Z,R_3JynOyQinv7BHL1,NA,NA,NA,NA,54.98809814453125,-1.6194000244140625,anonymous,EN,sentence_screen,canvas.Screen,3_38_1,press_s,keypress(s),response,166.28000000000065,15120,15121.34,15161.72,15328,15331,2020-11-17T15:15:25Z,15362.74,36,NA,NA,transfer,away,NA,You delivered the pizza to Natalie.,w,0,3,1,sensible,w,NA,NA,NA,NA,NA,NA,NA,NA,NA,NA,NA,NA,NA,NA,NA,NA,NA,Yes
2020-11-17T08:15:06Z,2020-11-17T08:15:59Z,IP Address,151.228.161.246,100,52,TRUE,2020-11-17T08:15:59Z,R_3JynOyQinv7BHL1,NA,NA,NA,NA,54.98809814453125,-1.6194000244140625,anonymous,EN,trial,flow.Sequence,3_38,NA,NA,completion,448.8199999999997,14849,14862.72,14879.18,15328,15332,2020-11-17T15:15:25Z,15362.74,36,NA,NA,transfer,away,NA,You delivered the pizza to Natalie.,NA,0,3,1,sensible,w,NA,NA,NA,NA,NA,NA,NA,NA,NA,NA,NA,NA,NA,NA,NA,NA,NA,Yes
2020-11-17T08:15:06Z,2020-11-17T08:15:59Z,IP Address,151.228.161.246,100,52,TRUE,2020-11-17T08:15:59Z,R_3JynOyQinv7BHL1,NA,NA,NA,NA,54.98809814453125,-1.6194000244140625,anonymous,EN,fixation_cross,canvas.Screen,3_39_0,end_fixation,keypress(Space),response,109.26000000000022,15332,15345.52,15362.74,15472,15475,2020-11-17T15:15:25Z,15495.18,179,NA,NA,transfer,NA,NA,You forked the bottle to Amanda.,NA,0,3,1,nonsense,s,NA,NA,NA,NA,NA,NA,NA,NA,NA,NA,NA,NA,NA,NA,NA,NA,NA,Yes
2020-11-17T08:15:06Z,2020-11-17T08:15:59Z,IP Address,151.228.161.246,100,52,TRUE,2020-11-17T08:15:59Z,R_3JynOyQinv7BHL1,NA,NA,NA,NA,54.98809814453125,-1.6194000244140625,anonymous,EN,sentence_screen,canvas.Screen,3_39_1,press_s,keypress(s),response,88.81999999999971,15476,15478.78,15495.18,15584,15617,2020-11-17T15:15:25Z,15646.08,179,NA,NA,transfer,NA,NA,You forked the bottle to Amanda.,s,1,3,1,nonsense,s,NA,NA,NA,NA,NA,NA,NA,NA,NA,NA,NA,NA,NA,NA,NA,NA,NA,Yes
2020-11-17T08:15:06Z,2020-11-17T08:15:59Z,IP Address,151.228.161.246,100,52,TRUE,2020-11-17T08:15:59Z,R_3JynOyQinv7BHL1,NA,NA,NA,NA,54.98809814453125,-1.6194000244140625,anonymous,EN,trial,flow.Sequence,3_39,NA,NA,completion,221.26000000000022,15332,15345.52,15362.74,15584,15617,2020-11-17T15:15:25Z,15646.08,179,NA,NA,transfer,NA,NA,You forked the bottle to Amanda.,NA,0,3,1,nonsense,s,NA,NA,NA,NA,NA,NA,NA,NA,NA,NA,NA,NA,NA,NA,NA,NA,NA,Yes
2020-11-17T08:15:06Z,2020-11-17T08:15:59Z,IP Address,151.228.161.246,100,52,TRUE,2020-11-17T08:15:59Z,R_3JynOyQinv7BHL1,NA,NA,NA,NA,54.98809814453125,-1.6194000244140625,anonymous,EN,fixation_cross,canvas.Screen,3_40_0,end_fixation,keypress(Space),response,145.92000000000007,15617,15628.68,15646.08,15792,15796,2020-11-17T15:15:25Z,15829.36,29,NA,NA,transfer,towards,NA,Konray donated money to you.,NA,0,3,1,sensible,w,NA,NA,NA,NA,NA,NA,NA,NA,NA,NA,NA,NA,NA,NA,NA,NA,NA,Yes
2020-11-17T08:15:06Z,2020-11-17T08:15:59Z,IP Address,151.228.161.246,100,52,TRUE,2020-11-17T08:15:59Z,R_3JynOyQinv7BHL1,NA,NA,NA,NA,54.98809814453125,-1.6194000244140625,anonymous,EN,sentence_screen,canvas.Screen,3_40_1,press_s,keypress(s),response,90.63999999999942,15796,15811.94,15829.36,15920,15923,2020-11-17T15:15:26Z,15945.6,29,NA,NA,transfer,towards,NA,Konray donated money to you.,w,0,3,1,sensible,w,NA,NA,NA,NA,NA,NA,NA,NA,NA,NA,NA,NA,NA,NA,NA,NA,NA,Yes
2020-11-17T08:15:06Z,2020-11-17T08:15:59Z,IP Address,151.228.161.246,100,52,TRUE,2020-11-17T08:15:59Z,R_3JynOyQinv7BHL1,NA,NA,NA,NA,54.98809814453125,-1.6194000244140625,anonymous,EN,trial,flow.Sequence,3_40,NA,NA,completion,273.9200000000001,15617,15628.68,15646.08,15920,15924,2020-11-17T15:15:26Z,15945.6,29,NA,NA,transfer,towards,NA,Konray donated money to you.,NA,0,3,1,sensible,w,NA,NA,NA,NA,NA,NA,NA,NA,NA,NA,NA,NA,NA,NA,NA,NA,NA,Yes
2020-11-17T08:15:06Z,2020-11-17T08:15:59Z,IP Address,151.228.161.246,100,52,TRUE,2020-11-17T08:15:59Z,R_3JynOyQinv7BHL1,NA,NA,NA,NA,54.98809814453125,-1.6194000244140625,anonymous,EN,fixation_cross,canvas.Screen,3_41_0,end_fixation,keypress(Space),response,174.39999999999964,15924,15929.22,15945.6,16120,16123,2020-11-17T15:15:26Z,16145.44,145,NA,NA,transfer,NA,NA,Shane choked the lesson with you.,NA,0,3,1,nonsense,s,NA,NA,NA,NA,NA,NA,NA,NA,NA,NA,NA,NA,NA,NA,NA,NA,NA,Yes
2020-11-17T08:15:06Z,2020-11-17T08:15:59Z,IP Address,151.228.161.246,100,52,TRUE,2020-11-17T08:15:59Z,R_3JynOyQinv7BHL1,NA,NA,NA,NA,54.98809814453125,-1.6194000244140625,anonymous,EN,sentence_screen,canvas.Screen,3_41_1,press_s,keypress(s),response,102.55999999999949,16124,16129.24,16145.44,16248,16251,2020-11-17T15:15:26Z,16279.2,145,NA,NA,transfer,NA,NA,Shane choked the lesson with you.,s,1,3,1,nonsense,s,NA,NA,NA,NA,NA,NA,NA,NA,NA,NA,NA,NA,NA,NA,NA,NA,NA,Yes
2020-11-17T08:15:06Z,2020-11-17T08:15:59Z,IP Address,151.228.161.246,100,52,TRUE,2020-11-17T08:15:59Z,R_3JynOyQinv7BHL1,NA,NA,NA,NA,54.98809814453125,-1.6194000244140625,anonymous,EN,trial,flow.Sequence,3_41,NA,NA,completion,302.39999999999964,15924,15929.22,15945.6,16248,16251,2020-11-17T15:15:26Z,16279.2,145,NA,NA,transfer,NA,NA,Shane choked the lesson with you.,NA,0,3,1,nonsense,s,NA,NA,NA,NA,NA,NA,NA,NA,NA,NA,NA,NA,NA,NA,NA,NA,NA,Yes
2020-11-17T08:15:06Z,2020-11-17T08:15:59Z,IP Address,151.228.161.246,100,52,TRUE,2020-11-17T08:15:59Z,R_3JynOyQinv7BHL1,NA,NA,NA,NA,54.98809814453125,-1.6194000244140625,anonymous,EN,fixation_cross,canvas.Screen,3_42_0,end_fixation,keypress(Space),response,140.79999999999927,16252,16261.76,16279.2,16420,16423,2020-11-17T15:15:26Z,16445.16,147,NA,NA,transfer,NA,NA,Tiffany wedged an homage to you.,NA,0,3,1,nonsense,s,NA,NA,NA,NA,NA,NA,NA,NA,NA,NA,NA,NA,NA,NA,NA,NA,NA,Yes
2020-11-17T08:15:06Z,2020-11-17T08:15:59Z,IP Address,151.228.161.246,100,52,TRUE,2020-11-17T08:15:59Z,R_3JynOyQinv7BHL1,NA,NA,NA,NA,54.98809814453125,-1.6194000244140625,anonymous,EN,sentence_screen,canvas.Screen,3_42_1,press_s,keypress(s),response,27.840000000000146,16423,16429.18,16445.16,16473,16475,2020-11-17T15:15:26Z,16495,147,NA,NA,transfer,NA,NA,Tiffany wedged an homage to you.,s,1,3,1,nonsense,s,NA,NA,NA,NA,NA,NA,NA,NA,NA,NA,NA,NA,NA,NA,NA,NA,NA,Yes
2020-11-17T08:15:06Z,2020-11-17T08:15:59Z,IP Address,151.228.161.246,100,52,TRUE,2020-11-17T08:15:59Z,R_3JynOyQinv7BHL1,NA,NA,NA,NA,54.98809814453125,-1.6194000244140625,anonymous,EN,trial,flow.Sequence,3_42,NA,NA,completion,193.79999999999927,16252,16261.76,16279.2,16473,16475,2020-11-17T15:15:26Z,16495,147,NA,NA,transfer,NA,NA,Tiffany wedged an homage to you.,NA,0,3,1,nonsense,s,NA,NA,NA,NA,NA,NA,NA,NA,NA,NA,NA,NA,NA,NA,NA,NA,NA,Yes
2020-11-17T08:15:06Z,2020-11-17T08:15:59Z,IP Address,151.228.161.246,100,52,TRUE,2020-11-17T08:15:59Z,R_3JynOyQinv7BHL1,NA,NA,NA,NA,54.98809814453125,-1.6194000244140625,anonymous,EN,fixation_cross,canvas.Screen,3_43_0,end_fixation,keypress(Space),response,193,16475,16479.18,16495,16688,16691,2020-11-17T15:15:26Z,16711.84,199,NA,NA,transfer,NA,NA,Jennifer recited the mouse for you.,NA,0,3,1,nonsense,s,NA,NA,NA,NA,NA,NA,NA,NA,NA,NA,NA,NA,NA,NA,NA,NA,NA,Yes
2020-11-17T08:15:06Z,2020-11-17T08:15:59Z,IP Address,151.228.161.246,100,52,TRUE,2020-11-17T08:15:59Z,R_3JynOyQinv7BHL1,NA,NA,NA,NA,54.98809814453125,-1.6194000244140625,anonymous,EN,sentence_screen,canvas.Screen,3_43_1,press_s,keypress(s),response,-3.8400000000001455,16691,16695.94,16711.84,16708,16714,2020-11-17T15:15:26Z,16745.46,199,NA,NA,transfer,NA,NA,Jennifer recited the mouse for you.,s,1,3,1,nonsense,s,NA,NA,NA,NA,NA,NA,NA,NA,NA,NA,NA,NA,NA,NA,NA,NA,NA,Yes
2020-11-17T08:15:06Z,2020-11-17T08:15:59Z,IP Address,151.228.161.246,100,52,TRUE,2020-11-17T08:15:59Z,R_3JynOyQinv7BHL1,NA,NA,NA,NA,54.98809814453125,-1.6194000244140625,anonymous,EN,trial,flow.Sequence,3_43,NA,NA,completion,213,16475,16479.18,16495,16708,16714,2020-11-17T15:15:26Z,16745.46,199,NA,NA,transfer,NA,NA,Jennifer recited the mouse for you.,NA,0,3,1,nonsense,s,NA,NA,NA,NA,NA,NA,NA,NA,NA,NA,NA,NA,NA,NA,NA,NA,NA,Yes
2020-11-17T08:15:06Z,2020-11-17T08:15:59Z,IP Address,151.228.161.246,100,52,TRUE,2020-11-17T08:15:59Z,R_3JynOyQinv7BHL1,NA,NA,NA,NA,54.98809814453125,-1.6194000244140625,anonymous,EN,fixation_cross,canvas.Screen,3_44_0,end_fixation,keypress(Space),response,390.5400000000009,16714,16729.2,16745.46,17136,17139,2020-11-17T15:15:27Z,17179.22,167,NA,NA,transfer,NA,NA,You danced the land to Dennis.,NA,0,3,1,nonsense,s,NA,NA,NA,NA,NA,NA,NA,NA,NA,NA,NA,NA,NA,NA,NA,NA,NA,Yes
2020-11-17T08:15:06Z,2020-11-17T08:15:59Z,IP Address,151.228.161.246,100,52,TRUE,2020-11-17T08:15:59Z,R_3JynOyQinv7BHL1,NA,NA,NA,NA,54.98809814453125,-1.6194000244140625,anonymous,EN,sentence_screen,canvas.Screen,3_44_1,press_w,keypress(w),response,140.77999999999884,17140,17141.2,17179.22,17320,17323,2020-11-17T15:15:27Z,17345.4,167,NA,NA,transfer,NA,NA,You danced the land to Dennis.,s,0,3,1,nonsense,s,NA,NA,NA,NA,NA,NA,NA,NA,NA,NA,NA,NA,NA,NA,NA,NA,NA,Yes
2020-11-17T08:15:06Z,2020-11-17T08:15:59Z,IP Address,151.228.161.246,100,52,TRUE,2020-11-17T08:15:59Z,R_3JynOyQinv7BHL1,NA,NA,NA,NA,54.98809814453125,-1.6194000244140625,anonymous,EN,trial,flow.Sequence,3_44,NA,NA,completion,574.5400000000009,16714,16729.2,16745.46,17320,17324,2020-11-17T15:15:27Z,17345.4,167,NA,NA,transfer,NA,NA,You danced the land to Dennis.,NA,0,3,1,nonsense,s,NA,NA,NA,NA,NA,NA,NA,NA,NA,NA,NA,NA,NA,NA,NA,NA,NA,Yes
2020-11-17T08:15:06Z,2020-11-17T08:15:59Z,IP Address,151.228.161.246,100,52,TRUE,2020-11-17T08:15:59Z,R_3JynOyQinv7BHL1,NA,NA,NA,NA,54.98809814453125,-1.6194000244140625,anonymous,EN,fixation_cross,canvas.Screen,3_45_0,end_fixation,keypress(Space),response,118.59999999999854,17324,17329.2,17345.4,17464,17467,2020-11-17T15:15:27Z,17495.98,24,NA,NA,transfer,away,NA,You bought Kourtney ice cream.,NA,0,3,1,sensible,w,NA,NA,NA,NA,NA,NA,NA,NA,NA,NA,NA,NA,NA,NA,NA,NA,NA,Yes
2020-11-17T08:15:06Z,2020-11-17T08:15:59Z,IP Address,151.228.161.246,100,52,TRUE,2020-11-17T08:15:59Z,R_3JynOyQinv7BHL1,NA,NA,NA,NA,54.98809814453125,-1.6194000244140625,anonymous,EN,sentence_screen,canvas.Screen,3_45_1,press_w,keypress(w),response,48.02000000000044,17468,17479.2,17495.98,17544,17547,2020-11-17T15:15:27Z,17579.2,24,NA,NA,transfer,away,NA,You bought Kourtney ice cream.,w,1,3,1,sensible,w,NA,NA,NA,NA,NA,NA,NA,NA,NA,NA,NA,NA,NA,NA,NA,NA,NA,Yes
2020-11-17T08:15:06Z,2020-11-17T08:15:59Z,IP Address,151.228.161.246,100,52,TRUE,2020-11-17T08:15:59Z,R_3JynOyQinv7BHL1,NA,NA,NA,NA,54.98809814453125,-1.6194000244140625,anonymous,EN,trial,flow.Sequence,3_45,NA,NA,completion,198.59999999999854,17324,17329.2,17345.4,17544,17548,2020-11-17T15:15:27Z,17579.2,24,NA,NA,transfer,away,NA,You bought Kourtney ice cream.,NA,0,3,1,sensible,w,NA,NA,NA,NA,NA,NA,NA,NA,NA,NA,NA,NA,NA,NA,NA,NA,NA,Yes
2020-11-17T08:15:06Z,2020-11-17T08:15:59Z,IP Address,151.228.161.246,100,52,TRUE,2020-11-17T08:15:59Z,R_3JynOyQinv7BHL1,NA,NA,NA,NA,54.98809814453125,-1.6194000244140625,anonymous,EN,fixation_cross,canvas.Screen,3_46_0,end_fixation,keypress(Space),response,184.79999999999927,17548,17561.78,17579.2,17764,17767,2020-11-17T15:15:27Z,17795.98,66,NA,NA,no_transfer,NA,NA,You read about donated money with Bertie.,NA,0,3,1,sensible,w,NA,NA,NA,NA,NA,NA,NA,NA,NA,NA,NA,NA,NA,NA,NA,NA,NA,Yes
2020-11-17T08:15:06Z,2020-11-17T08:15:59Z,IP Address,151.228.161.246,100,52,TRUE,2020-11-17T08:15:59Z,R_3JynOyQinv7BHL1,NA,NA,NA,NA,54.98809814453125,-1.6194000244140625,anonymous,EN,sentence_screen,canvas.Screen,3_46_1,press_w,keypress(w),response,84.02000000000044,17767,17779.2,17795.98,17880,17883,2020-11-17T15:15:27Z,17912.06,66,NA,NA,no_transfer,NA,NA,You read about donated money with Bertie.,w,1,3,1,sensible,w,NA,NA,NA,NA,NA,NA,NA,NA,NA,NA,NA,NA,NA,NA,NA,NA,NA,Yes
2020-11-17T08:15:06Z,2020-11-17T08:15:59Z,IP Address,151.228.161.246,100,52,TRUE,2020-11-17T08:15:59Z,R_3JynOyQinv7BHL1,NA,NA,NA,NA,54.98809814453125,-1.6194000244140625,anonymous,EN,trial,flow.Sequence,3_46,NA,NA,completion,300.7999999999993,17548,17561.78,17579.2,17880,17883,2020-11-17T15:15:27Z,17912.06,66,NA,NA,no_transfer,NA,NA,You read about donated money with Bertie.,NA,0,3,1,sensible,w,NA,NA,NA,NA,NA,NA,NA,NA,NA,NA,NA,NA,NA,NA,NA,NA,NA,Yes
2020-11-17T08:15:06Z,2020-11-17T08:15:59Z,IP Address,151.228.161.246,100,52,TRUE,2020-11-17T08:15:59Z,R_3JynOyQinv7BHL1,NA,NA,NA,NA,54.98809814453125,-1.6194000244140625,anonymous,EN,fixation_cross,canvas.Screen,3_47_0,end_fixation,keypress(Space),response,123.93999999999869,17884,17895.98,17912.06,18036,18039,2020-11-17T15:15:28Z,18062.64,40,NA,NA,transfer,away,NA,You dispensed the rations to Badruddeen.,NA,0,3,1,sensible,w,NA,NA,NA,NA,NA,NA,NA,NA,NA,NA,NA,NA,NA,NA,NA,NA,NA,Yes
2020-11-17T08:15:06Z,2020-11-17T08:15:59Z,IP Address,151.228.161.246,100,52,TRUE,2020-11-17T08:15:59Z,R_3JynOyQinv7BHL1,NA,NA,NA,NA,54.98809814453125,-1.6194000244140625,anonymous,EN,sentence_screen,canvas.Screen,3_47_1,press_w,keypress(w),response,29.360000000000582,18040,18045.98,18062.64,18092,18096,2020-11-17T15:15:28Z,18129.3,40,NA,NA,transfer,away,NA,You dispensed the rations to Badruddeen.,w,1,3,1,sensible,w,NA,NA,NA,NA,NA,NA,NA,NA,NA,NA,NA,NA,NA,NA,NA,NA,NA,Yes
2020-11-17T08:15:06Z,2020-11-17T08:15:59Z,IP Address,151.228.161.246,100,52,TRUE,2020-11-17T08:15:59Z,R_3JynOyQinv7BHL1,NA,NA,NA,NA,54.98809814453125,-1.6194000244140625,anonymous,EN,trial,flow.Sequence,3_47,NA,NA,completion,179.9399999999987,17884,17895.98,17912.06,18092,18096,2020-11-17T15:15:28Z,18129.3,40,NA,NA,transfer,away,NA,You dispensed the rations to Badruddeen.,NA,0,3,1,sensible,w,NA,NA,NA,NA,NA,NA,NA,NA,NA,NA,NA,NA,NA,NA,NA,NA,NA,Yes
2020-11-17T08:15:06Z,2020-11-17T08:15:59Z,IP Address,151.228.161.246,100,52,TRUE,2020-11-17T08:15:59Z,R_3JynOyQinv7BHL1,NA,NA,NA,NA,54.98809814453125,-1.6194000244140625,anonymous,EN,fixation_cross,canvas.Screen,3_48_0,end_fixation,keypress(Space),response,134.70000000000073,18096,18112.66,18129.3,18264,18267,2020-11-17T15:15:28Z,18295.98,189,NA,NA,transfer,NA,NA,Maya matched the phone to you.,NA,0,3,1,nonsense,s,NA,NA,NA,NA,NA,NA,NA,NA,NA,NA,NA,NA,NA,NA,NA,NA,NA,Yes
2020-11-17T08:15:06Z,2020-11-17T08:15:59Z,IP Address,151.228.161.246,100,52,TRUE,2020-11-17T08:15:59Z,R_3JynOyQinv7BHL1,NA,NA,NA,NA,54.98809814453125,-1.6194000244140625,anonymous,EN,sentence_screen,canvas.Screen,3_48_1,press_w,keypress(w),response,60.02000000000044,18268,18279.2,18295.98,18356,18359,2020-11-17T15:15:28Z,18379.2,189,NA,NA,transfer,NA,NA,Maya matched the phone to you.,s,0,3,1,nonsense,s,NA,NA,NA,NA,NA,NA,NA,NA,NA,NA,NA,NA,NA,NA,NA,NA,NA,Yes
2020-11-17T08:15:06Z,2020-11-17T08:15:59Z,IP Address,151.228.161.246,100,52,TRUE,2020-11-17T08:15:59Z,R_3JynOyQinv7BHL1,NA,NA,NA,NA,54.98809814453125,-1.6194000244140625,anonymous,EN,trial,flow.Sequence,3_48,NA,NA,completion,226.70000000000073,18096,18112.66,18129.3,18356,18360,2020-11-17T15:15:28Z,18379.2,189,NA,NA,transfer,NA,NA,Maya matched the phone to you.,NA,0,3,1,nonsense,s,NA,NA,NA,NA,NA,NA,NA,NA,NA,NA,NA,NA,NA,NA,NA,NA,NA,Yes
2020-11-17T08:15:06Z,2020-11-17T08:15:59Z,IP Address,151.228.161.246,100,52,TRUE,2020-11-17T08:15:59Z,R_3JynOyQinv7BHL1,NA,NA,NA,NA,54.98809814453125,-1.6194000244140625,anonymous,EN,fixation_cross,canvas.Screen,3_49_0,end_fixation,keypress(Space),response,156.79999999999927,18360,18362.64,18379.2,18536,18539,2020-11-17T15:15:28Z,18562.68,151,NA,NA,transfer,NA,NA,You radioed the floor with Crystal.,NA,0,3,1,nonsense,s,NA,NA,NA,NA,NA,NA,NA,NA,NA,NA,NA,NA,NA,NA,NA,NA,NA,Yes
2020-11-17T08:15:06Z,2020-11-17T08:15:59Z,IP Address,151.228.161.246,100,52,TRUE,2020-11-17T08:15:59Z,R_3JynOyQinv7BHL1,NA,NA,NA,NA,54.98809814453125,-1.6194000244140625,anonymous,EN,sentence_screen,canvas.Screen,3_49_1,press_s,keypress(s),response,45.31999999999971,18540,18545.44,18562.68,18608,18612,2020-11-17T15:15:28Z,18645.98,151,NA,NA,transfer,NA,NA,You radioed the floor with Crystal.,s,1,3,1,nonsense,s,NA,NA,NA,NA,NA,NA,NA,NA,NA,NA,NA,NA,NA,NA,NA,NA,NA,Yes
2020-11-17T08:15:06Z,2020-11-17T08:15:59Z,IP Address,151.228.161.246,100,52,TRUE,2020-11-17T08:15:59Z,R_3JynOyQinv7BHL1,NA,NA,NA,NA,54.98809814453125,-1.6194000244140625,anonymous,EN,trial,flow.Sequence,3_49,NA,NA,completion,228.79999999999927,18360,18362.64,18379.2,18608,18612,2020-11-17T15:15:28Z,18645.98,151,NA,NA,transfer,NA,NA,You radioed the floor with Crystal.,NA,0,3,1,nonsense,s,NA,NA,NA,NA,NA,NA,NA,NA,NA,NA,NA,NA,NA,NA,NA,NA,NA,Yes
2020-11-17T08:15:06Z,2020-11-17T08:15:59Z,IP Address,151.228.161.246,100,52,TRUE,2020-11-17T08:15:59Z,R_3JynOyQinv7BHL1,NA,NA,NA,NA,54.98809814453125,-1.6194000244140625,anonymous,EN,fixation_cross,canvas.Screen,3_50_0,end_fixation,keypress(Space),response,114.02000000000044,18612,18629.2,18645.98,18760,18763,2020-11-17T15:15:28Z,18796,35,NA,NA,transfer,towards,NA,Luis entrusted the key to you.,NA,0,3,1,sensible,w,NA,NA,NA,NA,NA,NA,NA,NA,NA,NA,NA,NA,NA,NA,NA,NA,NA,Yes
2020-11-17T08:15:06Z,2020-11-17T08:15:59Z,IP Address,151.228.161.246,100,52,TRUE,2020-11-17T08:15:59Z,R_3JynOyQinv7BHL1,NA,NA,NA,NA,54.98809814453125,-1.6194000244140625,anonymous,EN,sentence_screen,canvas.Screen,3_50_1,press_s,keypress(s),response,52,18763,18779.3,18796,18848,18851,2020-11-17T15:15:28Z,18879.22,35,NA,NA,transfer,towards,NA,Luis entrusted the key to you.,w,0,3,1,sensible,w,NA,NA,NA,NA,NA,NA,NA,NA,NA,NA,NA,NA,NA,NA,NA,NA,NA,Yes
2020-11-17T08:15:06Z,2020-11-17T08:15:59Z,IP Address,151.228.161.246,100,52,TRUE,2020-11-17T08:15:59Z,R_3JynOyQinv7BHL1,NA,NA,NA,NA,54.98809814453125,-1.6194000244140625,anonymous,EN,trial,flow.Sequence,3_50,NA,NA,completion,202.02000000000044,18612,18629.2,18645.98,18848,18851,2020-11-17T15:15:28Z,18879.22,35,NA,NA,transfer,towards,NA,Luis entrusted the key to you.,NA,0,3,1,sensible,w,NA,NA,NA,NA,NA,NA,NA,NA,NA,NA,NA,NA,NA,NA,NA,NA,NA,Yes
2020-11-17T08:15:06Z,2020-11-17T08:15:59Z,IP Address,151.228.161.246,100,52,TRUE,2020-11-17T08:15:59Z,R_3JynOyQinv7BHL1,NA,NA,NA,NA,54.98809814453125,-1.6194000244140625,anonymous,EN,fixation_cross,canvas.Screen,3_51_0,end_fixation,keypress(Space),response,132.77999999999884,18851,18862.68,18879.22,19012,19015,2020-11-17T15:15:29Z,19045.98,195,NA,NA,transfer,NA,NA,You blanketed Casey to the store.,NA,0,3,1,nonsense,s,NA,NA,NA,NA,NA,NA,NA,NA,NA,NA,NA,NA,NA,NA,NA,NA,NA,Yes
2020-11-17T08:15:06Z,2020-11-17T08:15:59Z,IP Address,151.228.161.246,100,52,TRUE,2020-11-17T08:15:59Z,R_3JynOyQinv7BHL1,NA,NA,NA,NA,54.98809814453125,-1.6194000244140625,anonymous,EN,sentence_screen,canvas.Screen,3_51_1,press_s,keypress(s),response,86.02000000000044,19016,19029.2,19045.98,19132,19136,2020-11-17T15:15:29Z,19162.66,195,NA,NA,transfer,NA,NA,You blanketed Casey to the store.,s,1,3,1,nonsense,s,NA,NA,NA,NA,NA,NA,NA,NA,NA,NA,NA,NA,NA,NA,NA,NA,NA,Yes
2020-11-17T08:15:06Z,2020-11-17T08:15:59Z,IP Address,151.228.161.246,100,52,TRUE,2020-11-17T08:15:59Z,R_3JynOyQinv7BHL1,NA,NA,NA,NA,54.98809814453125,-1.6194000244140625,anonymous,EN,trial,flow.Sequence,3_51,NA,NA,completion,252.77999999999884,18851,18862.68,18879.22,19132,19136,2020-11-17T15:15:29Z,19162.66,195,NA,NA,transfer,NA,NA,You blanketed Casey to the store.,NA,0,3,1,nonsense,s,NA,NA,NA,NA,NA,NA,NA,NA,NA,NA,NA,NA,NA,NA,NA,NA,NA,Yes
2020-11-17T08:15:06Z,2020-11-17T08:15:59Z,IP Address,151.228.161.246,100,52,TRUE,2020-11-17T08:15:59Z,R_3JynOyQinv7BHL1,NA,NA,NA,NA,54.98809814453125,-1.6194000244140625,anonymous,EN,fixation_cross,canvas.Screen,3_52_0,end_fixation,keypress(Space),response,137.34000000000015,19137,19145.5,19162.66,19300,19303,2020-11-17T15:15:29Z,19329.2,25,NA,NA,transfer,towards,NA,Hae slid you the cafeteria tray.,NA,0,3,1,sensible,w,NA,NA,NA,NA,NA,NA,NA,NA,NA,NA,NA,NA,NA,NA,NA,NA,NA,Yes
2020-11-17T08:15:06Z,2020-11-17T08:15:59Z,IP Address,151.228.161.246,100,52,TRUE,2020-11-17T08:15:59Z,R_3JynOyQinv7BHL1,NA,NA,NA,NA,54.98809814453125,-1.6194000244140625,anonymous,EN,sentence_screen,canvas.Screen,3_52_1,press_s,keypress(s),response,154.79999999999927,19304,19312.66,19329.2,19484,19488,2020-11-17T15:15:29Z,19512.66,25,NA,NA,transfer,towards,NA,Hae slid you the cafeteria tray.,w,0,3,1,sensible,w,NA,NA,NA,NA,NA,NA,NA,NA,NA,NA,NA,NA,NA,NA,NA,NA,NA,Yes
2020-11-17T08:15:06Z,2020-11-17T08:15:59Z,IP Address,151.228.161.246,100,52,TRUE,2020-11-17T08:15:59Z,R_3JynOyQinv7BHL1,NA,NA,NA,NA,54.98809814453125,-1.6194000244140625,anonymous,EN,trial,flow.Sequence,3_52,NA,NA,completion,321.34000000000015,19137,19145.5,19162.66,19484,19488,2020-11-17T15:15:29Z,19512.66,25,NA,NA,transfer,towards,NA,Hae slid you the cafeteria tray.,NA,0,3,1,sensible,w,NA,NA,NA,NA,NA,NA,NA,NA,NA,NA,NA,NA,NA,NA,NA,NA,NA,Yes
2020-11-17T08:15:06Z,2020-11-17T08:15:59Z,IP Address,151.228.161.246,100,52,TRUE,2020-11-17T08:15:59Z,R_3JynOyQinv7BHL1,NA,NA,NA,NA,54.98809814453125,-1.6194000244140625,anonymous,EN,fixation_cross,canvas.Screen,3_53_0,end_fixation,keypress(Space),response,119.34000000000015,19488,19495.98,19512.66,19632,19635,2020-11-17T15:15:29Z,19662.68,157,NA,NA,transfer,NA,NA,You drank the baseball with Morgan.,NA,0,3,1,nonsense,s,NA,NA,NA,NA,NA,NA,NA,NA,NA,NA,NA,NA,NA,NA,NA,NA,NA,Yes
2020-11-17T08:15:06Z,2020-11-17T08:15:59Z,IP Address,151.228.161.246,100,52,TRUE,2020-11-17T08:15:59Z,R_3JynOyQinv7BHL1,NA,NA,NA,NA,54.98809814453125,-1.6194000244140625,anonymous,EN,sentence_screen,canvas.Screen,3_53_1,press_s,keypress(s),response,201.3199999999997,19635,19645.02,19662.68,19864,19867,2020-11-17T15:15:29Z,19895.96,157,NA,NA,transfer,NA,NA,You drank the baseball with Morgan.,s,1,3,1,nonsense,s,NA,NA,NA,NA,NA,NA,NA,NA,NA,NA,NA,NA,NA,NA,NA,NA,NA,Yes
2020-11-17T08:15:06Z,2020-11-17T08:15:59Z,IP Address,151.228.161.246,100,52,TRUE,2020-11-17T08:15:59Z,R_3JynOyQinv7BHL1,NA,NA,NA,NA,54.98809814453125,-1.6194000244140625,anonymous,EN,trial,flow.Sequence,3_53,NA,NA,completion,351.34000000000015,19488,19495.98,19512.66,19864,19867,2020-11-17T15:15:29Z,19895.96,157,NA,NA,transfer,NA,NA,You drank the baseball with Morgan.,NA,0,3,1,nonsense,s,NA,NA,NA,NA,NA,NA,NA,NA,NA,NA,NA,NA,NA,NA,NA,NA,NA,Yes
2020-11-17T08:15:06Z,2020-11-17T08:15:59Z,IP Address,151.228.161.246,100,52,TRUE,2020-11-17T08:15:59Z,R_3JynOyQinv7BHL1,NA,NA,NA,NA,54.98809814453125,-1.6194000244140625,anonymous,EN,fixation_cross,canvas.Screen,3_54_0,end_fixation,keypress(Space),response,108.04000000000087,19867,19865.02,19895.96,20004,20007,2020-11-17T15:15:30Z,20029.18,191,NA,NA,transfer,NA,NA,You roasted Patricia the notion.,NA,0,3,1,nonsense,s,NA,NA,NA,NA,NA,NA,NA,NA,NA,NA,NA,NA,NA,NA,NA,NA,NA,Yes
2020-11-17T08:15:06Z,2020-11-17T08:15:59Z,IP Address,151.228.161.246,100,52,TRUE,2020-11-17T08:15:59Z,R_3JynOyQinv7BHL1,NA,NA,NA,NA,54.98809814453125,-1.6194000244140625,anonymous,EN,sentence_screen,canvas.Screen,3_54_1,press_w,keypress(w),response,178.8199999999997,20008,20011.68,20029.18,20208,20237,2020-11-17T15:15:30Z,20279.18,191,NA,NA,transfer,NA,NA,You roasted Patricia the notion.,s,0,3,1,nonsense,s,NA,NA,NA,NA,NA,NA,NA,NA,NA,NA,NA,NA,NA,NA,NA,NA,NA,Yes
2020-11-17T08:15:06Z,2020-11-17T08:15:59Z,IP Address,151.228.161.246,100,52,TRUE,2020-11-17T08:15:59Z,R_3JynOyQinv7BHL1,NA,NA,NA,NA,54.98809814453125,-1.6194000244140625,anonymous,EN,trial,flow.Sequence,3_54,NA,NA,completion,312.0400000000009,19867,19865.02,19895.96,20208,20237,2020-11-17T15:15:30Z,20279.18,191,NA,NA,transfer,NA,NA,You roasted Patricia the notion.,NA,0,3,1,nonsense,s,NA,NA,NA,NA,NA,NA,NA,NA,NA,NA,NA,NA,NA,NA,NA,NA,NA,Yes
2020-11-17T08:15:06Z,2020-11-17T08:15:59Z,IP Address,151.228.161.246,100,52,TRUE,2020-11-17T08:15:59Z,R_3JynOyQinv7BHL1,NA,NA,NA,NA,54.98809814453125,-1.6194000244140625,anonymous,EN,fixation_cross,canvas.Screen,3_55_0,end_fixation,keypress(Space),response,60.81999999999971,20237,20238.28,20279.18,20340,20343,2020-11-17T15:15:30Z,20362.08,70,NA,NA,no_transfer,NA,NA,You complained about Nolan.,NA,0,3,1,sensible,w,NA,NA,NA,NA,NA,NA,NA,NA,NA,NA,NA,NA,NA,NA,NA,NA,NA,Yes
2020-11-17T08:15:06Z,2020-11-17T08:15:59Z,IP Address,151.228.161.246,100,52,TRUE,2020-11-17T08:15:59Z,R_3JynOyQinv7BHL1,NA,NA,NA,NA,54.98809814453125,-1.6194000244140625,anonymous,EN,sentence_screen,canvas.Screen,3_55_1,press_w,keypress(w),response,113.91999999999825,20343,20345.12,20362.08,20476,20479,2020-11-17T15:15:30Z,20512.66,70,NA,NA,no_transfer,NA,NA,You complained about Nolan.,w,1,3,1,sensible,w,NA,NA,NA,NA,NA,NA,NA,NA,NA,NA,NA,NA,NA,NA,NA,NA,NA,Yes
2020-11-17T08:15:06Z,2020-11-17T08:15:59Z,IP Address,151.228.161.246,100,52,TRUE,2020-11-17T08:15:59Z,R_3JynOyQinv7BHL1,NA,NA,NA,NA,54.98809814453125,-1.6194000244140625,anonymous,EN,trial,flow.Sequence,3_55,NA,NA,completion,196.8199999999997,20237,20238.28,20279.18,20476,20479,2020-11-17T15:15:30Z,20512.66,70,NA,NA,no_transfer,NA,NA,You complained about Nolan.,NA,0,3,1,sensible,w,NA,NA,NA,NA,NA,NA,NA,NA,NA,NA,NA,NA,NA,NA,NA,NA,NA,Yes
2020-11-17T08:15:06Z,2020-11-17T08:15:59Z,IP Address,151.228.161.246,100,52,TRUE,2020-11-17T08:15:59Z,R_3JynOyQinv7BHL1,NA,NA,NA,NA,54.98809814453125,-1.6194000244140625,anonymous,EN,fixation_cross,canvas.Screen,3_56_0,end_fixation,keypress(Space),response,111.34000000000015,20480,20495.04,20512.66,20624,20628,2020-11-17T15:15:30Z,20646,68,NA,NA,no_transfer,NA,NA,You discuss the cash with Davidray.,NA,0,3,1,sensible,w,NA,NA,NA,NA,NA,NA,NA,NA,NA,NA,NA,NA,NA,NA,NA,NA,NA,Yes
2020-11-17T08:15:06Z,2020-11-17T08:15:59Z,IP Address,151.228.161.246,100,52,TRUE,2020-11-17T08:15:59Z,R_3JynOyQinv7BHL1,NA,NA,NA,NA,54.98809814453125,-1.6194000244140625,anonymous,EN,sentence_screen,canvas.Screen,3_56_1,press_w,keypress(w),response,138,20628,20629.18,20646,20784,20787,2020-11-17T15:15:30Z,20812.02,68,NA,NA,no_transfer,NA,NA,You discuss the cash with Davidray.,w,1,3,1,sensible,w,NA,NA,NA,NA,NA,NA,NA,NA,NA,NA,NA,NA,NA,NA,NA,NA,NA,Yes
2020-11-17T08:15:06Z,2020-11-17T08:15:59Z,IP Address,151.228.161.246,100,52,TRUE,2020-11-17T08:15:59Z,R_3JynOyQinv7BHL1,NA,NA,NA,NA,54.98809814453125,-1.6194000244140625,anonymous,EN,trial,flow.Sequence,3_56,NA,NA,completion,271.34000000000015,20479,20495.04,20512.66,20784,20787,2020-11-17T15:15:30Z,20812.02,68,NA,NA,no_transfer,NA,NA,You discuss the cash with Davidray.,NA,0,3,1,sensible,w,NA,NA,NA,NA,NA,NA,NA,NA,NA,NA,NA,NA,NA,NA,NA,NA,NA,Yes
2020-11-17T08:15:06Z,2020-11-17T08:15:59Z,IP Address,151.228.161.246,100,52,TRUE,2020-11-17T08:15:59Z,R_3JynOyQinv7BHL1,NA,NA,NA,NA,54.98809814453125,-1.6194000244140625,anonymous,EN,fixation_cross,canvas.Screen,3_57_0,end_fixation,keypress(Space),response,111.97999999999956,20788,20796,20812.02,20924,20927,2020-11-17T15:15:31Z,20945.36,177,NA,NA,transfer,NA,NA,You floundered the train to Katherine.,NA,0,3,1,nonsense,s,NA,NA,NA,NA,NA,NA,NA,NA,NA,NA,NA,NA,NA,NA,NA,NA,NA,Yes
2020-11-17T08:15:06Z,2020-11-17T08:15:59Z,IP Address,151.228.161.246,100,52,TRUE,2020-11-17T08:15:59Z,R_3JynOyQinv7BHL1,NA,NA,NA,NA,54.98809814453125,-1.6194000244140625,anonymous,EN,sentence_screen,canvas.Screen,3_57_1,press_w,keypress(w),response,114.63999999999942,20927,20929.3,20945.36,21060,21064,2020-11-17T15:15:31Z,21095.98,177,NA,NA,transfer,NA,NA,You floundered the train to Katherine.,s,0,3,1,nonsense,s,NA,NA,NA,NA,NA,NA,NA,NA,NA,NA,NA,NA,NA,NA,NA,NA,NA,Yes
2020-11-17T08:15:06Z,2020-11-17T08:15:59Z,IP Address,151.228.161.246,100,52,TRUE,2020-11-17T08:15:59Z,R_3JynOyQinv7BHL1,NA,NA,NA,NA,54.98809814453125,-1.6194000244140625,anonymous,EN,trial,flow.Sequence,3_57,NA,NA,completion,247.97999999999956,20788,20796,20812.02,21060,21064,2020-11-17T15:15:31Z,21095.98,177,NA,NA,transfer,NA,NA,You floundered the train to Katherine.,NA,0,3,1,nonsense,s,NA,NA,NA,NA,NA,NA,NA,NA,NA,NA,NA,NA,NA,NA,NA,NA,NA,Yes
2020-11-17T08:15:06Z,2020-11-17T08:15:59Z,IP Address,151.228.161.246,100,52,TRUE,2020-11-17T08:15:59Z,R_3JynOyQinv7BHL1,NA,NA,NA,NA,54.98809814453125,-1.6194000244140625,anonymous,EN,fixation_cross,canvas.Screen,3_58_0,end_fixation,keypress(Space),response,112.02000000000044,21064,21079.18,21095.98,21208,21211,2020-11-17T15:15:31Z,21229.26,161,NA,NA,transfer,NA,NA,You drank your idea to Ceara.,NA,0,3,1,nonsense,s,NA,NA,NA,NA,NA,NA,NA,NA,NA,NA,NA,NA,NA,NA,NA,NA,NA,Yes
2020-11-17T08:15:06Z,2020-11-17T08:15:59Z,IP Address,151.228.161.246,100,52,TRUE,2020-11-17T08:15:59Z,R_3JynOyQinv7BHL1,NA,NA,NA,NA,54.98809814453125,-1.6194000244140625,anonymous,EN,sentence_screen,canvas.Screen,3_58_1,press_w,keypress(w),response,74.7400000000016,21211,21211.84,21229.26,21304,21308,2020-11-17T15:15:31Z,21329.3,161,NA,NA,transfer,NA,NA,You drank your idea to Ceara.,s,0,3,1,nonsense,s,NA,NA,NA,NA,NA,NA,NA,NA,NA,NA,NA,NA,NA,NA,NA,NA,NA,Yes
2020-11-17T08:15:06Z,2020-11-17T08:15:59Z,IP Address,151.228.161.246,100,52,TRUE,2020-11-17T08:15:59Z,R_3JynOyQinv7BHL1,NA,NA,NA,NA,54.98809814453125,-1.6194000244140625,anonymous,EN,trial,flow.Sequence,3_58,NA,NA,completion,208.02000000000044,21064,21079.18,21095.98,21304,21308,2020-11-17T15:15:31Z,21329.3,161,NA,NA,transfer,NA,NA,You drank your idea to Ceara.,NA,0,3,1,nonsense,s,NA,NA,NA,NA,NA,NA,NA,NA,NA,NA,NA,NA,NA,NA,NA,NA,NA,Yes
2020-11-17T08:15:06Z,2020-11-17T08:15:59Z,IP Address,151.228.161.246,100,52,TRUE,2020-11-17T08:15:59Z,R_3JynOyQinv7BHL1,NA,NA,NA,NA,54.98809814453125,-1.6194000244140625,anonymous,EN,fixation_cross,canvas.Screen,3_59_0,end_fixation,keypress(Space),response,130.70000000000073,21308,21312.64,21329.3,21460,21464,2020-11-17T15:15:31Z,21495.88,64,NA,NA,no_transfer,NA,NA,Andrew drank some water with you.,NA,0,3,1,sensible,w,NA,NA,NA,NA,NA,NA,NA,NA,NA,NA,NA,NA,NA,NA,NA,NA,NA,Yes
2020-11-17T08:15:06Z,2020-11-17T08:15:59Z,IP Address,151.228.161.246,100,52,TRUE,2020-11-17T08:15:59Z,R_3JynOyQinv7BHL1,NA,NA,NA,NA,54.98809814453125,-1.6194000244140625,anonymous,EN,sentence_screen,canvas.Screen,3_59_1,press_w,keypress(w),response,28.11999999999898,21464,21479.2,21495.88,21524,21527,2020-11-17T15:15:31Z,21545.48,64,NA,NA,no_transfer,NA,NA,Andrew drank some water with you.,w,1,3,1,sensible,w,NA,NA,NA,NA,NA,NA,NA,NA,NA,NA,NA,NA,NA,NA,NA,NA,NA,Yes
2020-11-17T08:15:06Z,2020-11-17T08:15:59Z,IP Address,151.228.161.246,100,52,TRUE,2020-11-17T08:15:59Z,R_3JynOyQinv7BHL1,NA,NA,NA,NA,54.98809814453125,-1.6194000244140625,anonymous,EN,trial,flow.Sequence,3_59,NA,NA,completion,194.70000000000073,21308,21312.64,21329.3,21524,21527,2020-11-17T15:15:31Z,21545.48,64,NA,NA,no_transfer,NA,NA,Andrew drank some water with you.,NA,0,3,1,sensible,w,NA,NA,NA,NA,NA,NA,NA,NA,NA,NA,NA,NA,NA,NA,NA,NA,NA,Yes
2020-11-17T08:15:06Z,2020-11-17T08:15:59Z,IP Address,151.228.161.246,100,52,TRUE,2020-11-17T08:15:59Z,R_3JynOyQinv7BHL1,NA,NA,NA,NA,54.98809814453125,-1.6194000244140625,anonymous,EN,experimental_loop_block_1,flow.Loop,3,NA,NA,completion,15228.939999999999,6277,6278.94,6295.06,21524,21528,2020-11-17T15:15:31Z,21545.48,NA,NA,NA,NA,NA,NA,NA,NA,0,NA,NA,NA,NA,NA,NA,NA,NA,NA,NA,NA,NA,NA,NA,NA,NA,NA,NA,NA,NA,NA,Yes
2020-11-17T08:15:06Z,2020-11-17T08:15:59Z,IP Address,151.228.161.246,100,52,TRUE,2020-11-17T08:15:59Z,R_3JynOyQinv7BHL1,NA,NA,NA,NA,54.98809814453125,-1.6194000244140625,anonymous,EN,instruction_block_2,canvas.Screen,4,end_instructions,keypress(Space),response,546.5200000000004,21528,21528.26,21545.48,22092,22096,2020-11-17T15:15:32Z,22129.26,NA,NA,NA,NA,NA,NA,NA,NA,0,NA,NA,NA,NA,NA,NA,NA,NA,NA,NA,NA,NA,NA,NA,NA,NA,NA,NA,NA,NA,NA,Yes
2020-11-17T08:15:06Z,2020-11-17T08:15:59Z,IP Address,151.228.161.246,100,52,TRUE,2020-11-17T08:15:59Z,R_3JynOyQinv7BHL1,NA,NA,NA,NA,54.98809814453125,-1.6194000244140625,anonymous,EN,fixation_cross,canvas.Screen,5_0_0,end_fixation,keypress(Space),response,287.7400000000016,22096,22097.76,22129.26,22417,22420,2020-11-17T15:15:32Z,22461.54,13,NA,NA,transfer,towards,NA,Jessica gave you another chance.,NA,0,3,2,sensible,s,NA,NA,NA,NA,NA,NA,NA,NA,NA,NA,NA,NA,NA,NA,NA,NA,NA,Yes
2020-11-17T08:15:06Z,2020-11-17T08:15:59Z,IP Address,151.228.161.246,100,52,TRUE,2020-11-17T08:15:59Z,R_3JynOyQinv7BHL1,NA,NA,NA,NA,54.98809814453125,-1.6194000244140625,anonymous,EN,sentence_screen,canvas.Screen,5_0_1,press_w,keypress(w),response,50.45999999999913,22420,22421.24,22461.54,22512,22515,2020-11-17T15:15:32Z,22545.42,13,NA,NA,transfer,towards,NA,Jessica gave you another chance.,s,0,3,2,sensible,s,NA,NA,NA,NA,NA,NA,NA,NA,NA,NA,NA,NA,NA,NA,NA,NA,NA,Yes
2020-11-17T08:15:06Z,2020-11-17T08:15:59Z,IP Address,151.228.161.246,100,52,TRUE,2020-11-17T08:15:59Z,R_3JynOyQinv7BHL1,NA,NA,NA,NA,54.98809814453125,-1.6194000244140625,anonymous,EN,trial,flow.Sequence,5_0,NA,NA,completion,382.7400000000016,22096,22097.76,22129.26,22512,22515,2020-11-17T15:15:32Z,22545.42,13,NA,NA,transfer,towards,NA,Jessica gave you another chance.,NA,0,3,2,sensible,s,NA,NA,NA,NA,NA,NA,NA,NA,NA,NA,NA,NA,NA,NA,NA,NA,NA,Yes
2020-11-17T08:15:06Z,2020-11-17T08:15:59Z,IP Address,151.228.161.246,100,52,TRUE,2020-11-17T08:15:59Z,R_3JynOyQinv7BHL1,NA,NA,NA,NA,54.98809814453125,-1.6194000244140625,anonymous,EN,fixation_cross,canvas.Screen,5_1_0,end_fixation,keypress(Space),response,114.58000000000175,22515,22529.22,22545.42,22660,22663,2020-11-17T15:15:32Z,22695.88,17,NA,NA,transfer,towards,NA,Brandon gave you a piece of his mind.,NA,0,3,2,sensible,s,NA,NA,NA,NA,NA,NA,NA,NA,NA,NA,NA,NA,NA,NA,NA,NA,NA,Yes
2020-11-17T08:15:06Z,2020-11-17T08:15:59Z,IP Address,151.228.161.246,100,52,TRUE,2020-11-17T08:15:59Z,R_3JynOyQinv7BHL1,NA,NA,NA,NA,54.98809814453125,-1.6194000244140625,anonymous,EN,sentence_screen,canvas.Screen,5_1_1,press_w,keypress(w),response,88.11999999999898,22663,22679.2,22695.88,22784,22788,2020-11-17T15:15:32Z,22812.08,17,NA,NA,transfer,towards,NA,Brandon gave you a piece of his mind.,s,0,3,2,sensible,s,NA,NA,NA,NA,NA,NA,NA,NA,NA,NA,NA,NA,NA,NA,NA,NA,NA,Yes
2020-11-17T08:15:06Z,2020-11-17T08:15:59Z,IP Address,151.228.161.246,100,52,TRUE,2020-11-17T08:15:59Z,R_3JynOyQinv7BHL1,NA,NA,NA,NA,54.98809814453125,-1.6194000244140625,anonymous,EN,trial,flow.Sequence,5_1,NA,NA,completion,238.58000000000175,22515,22529.22,22545.42,22784,22788,2020-11-17T15:15:32Z,22812.08,17,NA,NA,transfer,towards,NA,Brandon gave you a piece of his mind.,NA,0,3,2,sensible,s,NA,NA,NA,NA,NA,NA,NA,NA,NA,NA,NA,NA,NA,NA,NA,NA,NA,Yes
2020-11-17T08:15:06Z,2020-11-17T08:15:59Z,IP Address,151.228.161.246,100,52,TRUE,2020-11-17T08:15:59Z,R_3JynOyQinv7BHL1,NA,NA,NA,NA,54.98809814453125,-1.6194000244140625,anonymous,EN,fixation_cross,canvas.Screen,5_2_0,end_fixation,keypress(Space),response,91.91999999999825,22789,22795.9,22812.08,22904,22907,2020-11-17T15:15:32Z,22929.22,109,NA,NA,transfer,NA,NA,Awda blanketed you the chance.,NA,0,3,2,nonsense,w,NA,NA,NA,NA,NA,NA,NA,NA,NA,NA,NA,NA,NA,NA,NA,NA,NA,Yes
2020-11-17T08:15:06Z,2020-11-17T08:15:59Z,IP Address,151.228.161.246,100,52,TRUE,2020-11-17T08:15:59Z,R_3JynOyQinv7BHL1,NA,NA,NA,NA,54.98809814453125,-1.6194000244140625,anonymous,EN,sentence_screen,canvas.Screen,5_2_1,press_w,keypress(w),response,66.77999999999884,22907,22912.54,22929.22,22996,23000,2020-11-17T15:15:33Z,23029.22,109,NA,NA,transfer,NA,NA,Awda blanketed you the chance.,w,1,3,2,nonsense,w,NA,NA,NA,NA,NA,NA,NA,NA,NA,NA,NA,NA,NA,NA,NA,NA,NA,Yes
2020-11-17T08:15:06Z,2020-11-17T08:15:59Z,IP Address,151.228.161.246,100,52,TRUE,2020-11-17T08:15:59Z,R_3JynOyQinv7BHL1,NA,NA,NA,NA,54.98809814453125,-1.6194000244140625,anonymous,EN,trial,flow.Sequence,5_2,NA,NA,completion,183.91999999999825,22789,22795.9,22812.08,22996,23000,2020-11-17T15:15:33Z,23029.22,109,NA,NA,transfer,NA,NA,Awda blanketed you the chance.,NA,0,3,2,nonsense,w,NA,NA,NA,NA,NA,NA,NA,NA,NA,NA,NA,NA,NA,NA,NA,NA,NA,Yes
2020-11-17T08:15:06Z,2020-11-17T08:15:59Z,IP Address,151.228.161.246,100,52,TRUE,2020-11-17T08:15:59Z,R_3JynOyQinv7BHL1,NA,NA,NA,NA,54.98809814453125,-1.6194000244140625,anonymous,EN,fixation_cross,canvas.Screen,5_3_0,end_fixation,keypress(Space),response,106.77999999999884,23001,23012.06,23029.22,23136,23139,2020-11-17T15:15:33Z,23161.58,101,NA,NA,transfer,NA,NA,Steffen smiled the key to you.,NA,0,3,2,nonsense,w,NA,NA,NA,NA,NA,NA,NA,NA,NA,NA,NA,NA,NA,NA,NA,NA,NA,Yes
2020-11-17T08:15:06Z,2020-11-17T08:15:59Z,IP Address,151.228.161.246,100,52,TRUE,2020-11-17T08:15:59Z,R_3JynOyQinv7BHL1,NA,NA,NA,NA,54.98809814453125,-1.6194000244140625,anonymous,EN,sentence_screen,canvas.Screen,5_3_1,press_w,keypress(w),response,34.419999999998254,23140,23145.44,23161.58,23196,23200,2020-11-17T15:15:33Z,23229.2,101,NA,NA,transfer,NA,NA,Steffen smiled the key to you.,w,1,3,2,nonsense,w,NA,NA,NA,NA,NA,NA,NA,NA,NA,NA,NA,NA,NA,NA,NA,NA,NA,Yes
2020-11-17T08:15:06Z,2020-11-17T08:15:59Z,IP Address,151.228.161.246,100,52,TRUE,2020-11-17T08:15:59Z,R_3JynOyQinv7BHL1,NA,NA,NA,NA,54.98809814453125,-1.6194000244140625,anonymous,EN,trial,flow.Sequence,5_3,NA,NA,completion,166.77999999999884,23001,23012.06,23029.22,23196,23201,2020-11-17T15:15:33Z,23229.2,101,NA,NA,transfer,NA,NA,Steffen smiled the key to you.,NA,0,3,2,nonsense,w,NA,NA,NA,NA,NA,NA,NA,NA,NA,NA,NA,NA,NA,NA,NA,NA,NA,Yes
2020-11-17T08:15:06Z,2020-11-17T08:15:59Z,IP Address,151.228.161.246,100,52,TRUE,2020-11-17T08:15:59Z,R_3JynOyQinv7BHL1,NA,NA,NA,NA,54.98809814453125,-1.6194000244140625,anonymous,EN,fixation_cross,canvas.Screen,5_4_0,end_fixation,keypress(Space),response,202.79999999999927,23201,23212.02,23229.2,23432,23435,2020-11-17T15:15:33Z,23479.2,6,NA,NA,transfer,away,NA,You gave Dallas some writing tips.,NA,0,3,2,sensible,s,NA,NA,NA,NA,NA,NA,NA,NA,NA,NA,NA,NA,NA,NA,NA,NA,NA,Yes
2020-11-17T08:15:06Z,2020-11-17T08:15:59Z,IP Address,151.228.161.246,100,52,TRUE,2020-11-17T08:15:59Z,R_3JynOyQinv7BHL1,NA,NA,NA,NA,54.98809814453125,-1.6194000244140625,anonymous,EN,sentence_screen,canvas.Screen,5_4_1,press_s,keypress(s),response,328.7999999999993,23435,23436.94,23479.2,23808,23811,2020-11-17T15:15:33Z,23829.18,6,NA,NA,transfer,away,NA,You gave Dallas some writing tips.,s,1,3,2,sensible,s,NA,NA,NA,NA,NA,NA,NA,NA,NA,NA,NA,NA,NA,NA,NA,NA,NA,Yes
2020-11-17T08:15:06Z,2020-11-17T08:15:59Z,IP Address,151.228.161.246,100,52,TRUE,2020-11-17T08:15:59Z,R_3JynOyQinv7BHL1,NA,NA,NA,NA,54.98809814453125,-1.6194000244140625,anonymous,EN,trial,flow.Sequence,5_4,NA,NA,completion,578.7999999999993,23201,23212.02,23229.2,23808,23813,2020-11-17T15:15:33Z,23829.18,6,NA,NA,transfer,away,NA,You gave Dallas some writing tips.,NA,0,3,2,sensible,s,NA,NA,NA,NA,NA,NA,NA,NA,NA,NA,NA,NA,NA,NA,NA,NA,NA,Yes
2020-11-17T08:15:06Z,2020-11-17T08:15:59Z,IP Address,151.228.161.246,100,52,TRUE,2020-11-17T08:15:59Z,R_3JynOyQinv7BHL1,NA,NA,NA,NA,54.98809814453125,-1.6194000244140625,anonymous,EN,fixation_cross,canvas.Screen,5_5_0,end_fixation,keypress(Space),response,134.8199999999997,23813,23811.96,23829.18,23964,23967,2020-11-17T15:15:34Z,23995.92,20,NA,NA,transfer,away,NA,You conveyed the message to Bianca.,NA,0,3,2,sensible,s,NA,NA,NA,NA,NA,NA,NA,NA,NA,NA,NA,NA,NA,NA,NA,NA,NA,Yes
2020-11-17T08:15:06Z,2020-11-17T08:15:59Z,IP Address,151.228.161.246,100,52,TRUE,2020-11-17T08:15:59Z,R_3JynOyQinv7BHL1,NA,NA,NA,NA,54.98809814453125,-1.6194000244140625,anonymous,EN,sentence_screen,canvas.Screen,5_5_1,press_s,keypress(s),response,176.08000000000175,23967,23979.22,23995.92,24172,24176,2020-11-17T15:15:34Z,24195.06,20,NA,NA,transfer,away,NA,You conveyed the message to Bianca.,s,1,3,2,sensible,s,NA,NA,NA,NA,NA,NA,NA,NA,NA,NA,NA,NA,NA,NA,NA,NA,NA,Yes
2020-11-17T08:15:06Z,2020-11-17T08:15:59Z,IP Address,151.228.161.246,100,52,TRUE,2020-11-17T08:15:59Z,R_3JynOyQinv7BHL1,NA,NA,NA,NA,54.98809814453125,-1.6194000244140625,anonymous,EN,trial,flow.Sequence,5_5,NA,NA,completion,342.8199999999997,23813,23811.96,23829.18,24172,24176,2020-11-17T15:15:34Z,24195.06,20,NA,NA,transfer,away,NA,You conveyed the message to Bianca.,NA,0,3,2,sensible,s,NA,NA,NA,NA,NA,NA,NA,NA,NA,NA,NA,NA,NA,NA,NA,NA,NA,Yes
2020-11-17T08:15:06Z,2020-11-17T08:15:59Z,IP Address,151.228.161.246,100,52,TRUE,2020-11-17T08:15:59Z,R_3JynOyQinv7BHL1,NA,NA,NA,NA,54.98809814453125,-1.6194000244140625,anonymous,EN,fixation_cross,canvas.Screen,5_6_0,end_fixation,keypress(Space),response,100.93999999999869,24176,24179.2,24195.06,24296,24300,2020-11-17T15:15:34Z,24329.22,113,NA,NA,transfer,NA,NA,You sing the pizza to Mia.,NA,0,3,2,nonsense,w,NA,NA,NA,NA,NA,NA,NA,NA,NA,NA,NA,NA,NA,NA,NA,NA,NA,Yes
