start_date,end_date,status,ip_address,progress,duration_in_seconds,finished,recorded_date,response_id,recipient_last_name,recipient_first_name,recipient_email,external_reference,location_latitude,location_longitude,distribution_channel,user_language,sender,sender_type,sender_id,response,response_action,ended_on,duration,time_run,time_render,time_show,time_end,time_commit,timestamp,time_switch,list,block,phase,item,sensibility,concreteness,type,direction,text,correct_response,correct_response_2,correct,meta_labjs_version,meta_location,meta_user_agent,meta_platform,meta_language,meta_locale,meta_time_zone,meta_timezone_offset,meta_screen_width,meta_screen_height,meta_scroll_width,meta_scroll_height,meta_window_inner_width,meta_window_inner_height,meta_device_pixel_ratio,meta_labjs_build_flavor,meta_labjs_build_commit,consent
2020-11-18T05:03:14Z,2020-11-18T05:05:49Z,IP Address,151.228.161.246,100,155,TRUE,2020-11-18T05:05:49Z,R_3fCqQko0KQrT4Wz,NA,NA,NA,NA,54.98809814453125,-1.6194000244140625,anonymous,EN,instructions,canvas.Screen,0,end_instructions,keypress(Space),response,87622.44,2111,2126.34,2142.56,89765,89771,2020-11-18T12:04:49Z,89807.96,NA,NA,NA,NA,NA,NA,NA,NA,NA,NA,NA,NA,20.1.1,https://focused-wilson-356124.netlify.app/,Mozilla/5.0 (Macintosh; Intel Mac OS X 10.16; rv:82.0) Gecko/20100101 Firefox/82.0,MacIntel,en-GB,en-GB,Europe/London,0,1920,1080,770,600,770,600,1,production,c48ac4ada3769e8d34489594ab03097d5f256ac7,Yes
2020-11-18T05:03:14Z,2020-11-18T05:05:49Z,IP Address,151.228.161.246,100,155,TRUE,2020-11-18T05:05:49Z,R_3fCqQko0KQrT4Wz,NA,NA,NA,NA,54.98809814453125,-1.6194000244140625,anonymous,EN,fixation_cross,canvas.Screen,1_0_0,end_fixation,keypress(Space),response,1670.0399999999936,89772,89772.88,89807.96,91478,91481,2020-11-18T12:04:50Z,91508.24,NA,NA,prac,2,sensible,concrete,no_transfer,NA,You read the email with Ian.,w,NA,NA,NA,NA,NA,NA,NA,NA,NA,NA,NA,NA,NA,NA,NA,NA,NA,NA,NA,Yes
2020-11-18T05:03:14Z,2020-11-18T05:05:49Z,IP Address,151.228.161.246,100,155,TRUE,2020-11-18T05:05:49Z,R_3fCqQko0KQrT4Wz,NA,NA,NA,NA,54.98809814453125,-1.6194000244140625,anonymous,EN,sentence_screen,canvas.Screen,1_0_1,w,keypress(w),response,500.75999999999476,91481,91482.08,91508.24,92009,92013,2020-11-18T12:04:51Z,92041.56,NA,NA,prac,2,sensible,concrete,no_transfer,NA,You read the email with Ian.,w,w,TRUE,NA,NA,NA,NA,NA,NA,NA,NA,NA,NA,NA,NA,NA,NA,NA,NA,NA,Yes
2020-11-18T05:03:14Z,2020-11-18T05:05:49Z,IP Address,151.228.161.246,100,155,TRUE,2020-11-18T05:05:49Z,R_3fCqQko0KQrT4Wz,NA,NA,NA,NA,54.98809814453125,-1.6194000244140625,anonymous,EN,trial,flow.Sequence,1_0,NA,NA,completion,2201.0399999999936,89772,89772.88,89807.96,92009,92014,2020-11-18T12:04:51Z,92041.56,NA,NA,prac,2,sensible,concrete,no_transfer,NA,You read the email with Ian.,w,NA,NA,NA,NA,NA,NA,NA,NA,NA,NA,NA,NA,NA,NA,NA,NA,NA,NA,NA,Yes
2020-11-18T05:03:14Z,2020-11-18T05:05:49Z,IP Address,151.228.161.246,100,155,TRUE,2020-11-18T05:05:49Z,R_3fCqQko0KQrT4Wz,NA,NA,NA,NA,54.98809814453125,-1.6194000244140625,anonymous,EN,fixation_cross,canvas.Screen,1_1_0,end_fixation,keypress(Space),response,223.44000000000233,92014,92015,92041.56,92265,92269,2020-11-18T12:04:51Z,92308.22,NA,NA,prac,4,nonsense,NA,no_transfer,NA,Joe drank the danger with you.,s,NA,NA,NA,NA,NA,NA,NA,NA,NA,NA,NA,NA,NA,NA,NA,NA,NA,NA,NA,Yes
2020-11-18T05:03:14Z,2020-11-18T05:05:49Z,IP Address,151.228.161.246,100,155,TRUE,2020-11-18T05:05:49Z,R_3fCqQko0KQrT4Wz,NA,NA,NA,NA,54.98809814453125,-1.6194000244140625,anonymous,EN,sentence_screen,canvas.Screen,1_1_1,w,keypress(w),response,880.7799999999988,92269,92269.88,92308.22,93189,93193,2020-11-18T12:04:52Z,93224.96,NA,NA,prac,4,nonsense,NA,no_transfer,NA,Joe drank the danger with you.,s,s,FALSE,NA,NA,NA,NA,NA,NA,NA,NA,NA,NA,NA,NA,NA,NA,NA,NA,NA,Yes
2020-11-18T05:03:14Z,2020-11-18T05:05:49Z,IP Address,151.228.161.246,100,155,TRUE,2020-11-18T05:05:49Z,R_3fCqQko0KQrT4Wz,NA,NA,NA,NA,54.98809814453125,-1.6194000244140625,anonymous,EN,trial,flow.Sequence,1_1,NA,NA,completion,1147.4400000000023,92014,92015,92041.56,93189,93193,2020-11-18T12:04:52Z,93224.96,NA,NA,prac,4,nonsense,NA,no_transfer,NA,Joe drank the danger with you.,s,NA,NA,NA,NA,NA,NA,NA,NA,NA,NA,NA,NA,NA,NA,NA,NA,NA,NA,NA,Yes
2020-11-18T05:03:14Z,2020-11-18T05:05:49Z,IP Address,151.228.161.246,100,155,TRUE,2020-11-18T05:05:49Z,R_3fCqQko0KQrT4Wz,NA,NA,NA,NA,54.98809814453125,-1.6194000244140625,anonymous,EN,fixation_cross,canvas.Screen,1_2_0,end_fixation,keypress(Space),response,228.0399999999936,93193,93194.3,93224.96,93453,93457,2020-11-18T12:04:52Z,93491.52,NA,NA,prac,1,sensible,concrete,transfer,towards,You gave the news article to Ben.,w,NA,NA,NA,NA,NA,NA,NA,NA,NA,NA,NA,NA,NA,NA,NA,NA,NA,NA,NA,Yes
2020-11-18T05:03:14Z,2020-11-18T05:05:49Z,IP Address,151.228.161.246,100,155,TRUE,2020-11-18T05:05:49Z,R_3fCqQko0KQrT4Wz,NA,NA,NA,NA,54.98809814453125,-1.6194000244140625,anonymous,EN,sentence_screen,canvas.Screen,1_2_1,w,keypress(w),response,193.47999999999593,93457,93458,93491.52,93685,93688,2020-11-18T12:04:53Z,93725.24,NA,NA,prac,1,sensible,concrete,transfer,towards,You gave the news article to Ben.,w,w,TRUE,NA,NA,NA,NA,NA,NA,NA,NA,NA,NA,NA,NA,NA,NA,NA,NA,NA,Yes
2020-11-18T05:03:14Z,2020-11-18T05:05:49Z,IP Address,151.228.161.246,100,155,TRUE,2020-11-18T05:05:49Z,R_3fCqQko0KQrT4Wz,NA,NA,NA,NA,54.98809814453125,-1.6194000244140625,anonymous,EN,trial,flow.Sequence,1_2,NA,NA,completion,460.0399999999936,93193,93194.3,93224.96,93685,93689,2020-11-18T12:04:53Z,93725.24,NA,NA,prac,1,sensible,concrete,transfer,towards,You gave the news article to Ben.,w,NA,NA,NA,NA,NA,NA,NA,NA,NA,NA,NA,NA,NA,NA,NA,NA,NA,NA,NA,Yes
2020-11-18T05:03:14Z,2020-11-18T05:05:49Z,IP Address,151.228.161.246,100,155,TRUE,2020-11-18T05:05:49Z,R_3fCqQko0KQrT4Wz,NA,NA,NA,NA,54.98809814453125,-1.6194000244140625,anonymous,EN,fixation_cross,canvas.Screen,1_3_0,end_fixation,keypress(Space),response,171.75999999999476,93689,93690.58,93725.24,93897,93901,2020-11-18T12:04:53Z,93925.26,NA,NA,prac,3,nonsense,NA,transfer,NA,Stephen sent you the alpha.,s,NA,NA,NA,NA,NA,NA,NA,NA,NA,NA,NA,NA,NA,NA,NA,NA,NA,NA,NA,Yes
2020-11-18T05:03:14Z,2020-11-18T05:05:49Z,IP Address,151.228.161.246,100,155,TRUE,2020-11-18T05:05:49Z,R_3fCqQko0KQrT4Wz,NA,NA,NA,NA,54.98809814453125,-1.6194000244140625,anonymous,EN,sentence_screen,canvas.Screen,1_3_1,w,keypress(w),response,131.74000000000524,93901,93908.04,93925.26,94057,94061,2020-11-18T12:04:53Z,94091.52,NA,NA,prac,3,nonsense,NA,transfer,NA,Stephen sent you the alpha.,s,s,FALSE,NA,NA,NA,NA,NA,NA,NA,NA,NA,NA,NA,NA,NA,NA,NA,NA,NA,Yes
2020-11-18T05:03:14Z,2020-11-18T05:05:49Z,IP Address,151.228.161.246,100,155,TRUE,2020-11-18T05:05:49Z,R_3fCqQko0KQrT4Wz,NA,NA,NA,NA,54.98809814453125,-1.6194000244140625,anonymous,EN,trial,flow.Sequence,1_3,NA,NA,completion,331.75999999999476,93689,93690.58,93725.24,94057,94062,2020-11-18T12:04:53Z,94091.52,NA,NA,prac,3,nonsense,NA,transfer,NA,Stephen sent you the alpha.,s,NA,NA,NA,NA,NA,NA,NA,NA,NA,NA,NA,NA,NA,NA,NA,NA,NA,NA,NA,Yes
2020-11-18T05:03:14Z,2020-11-18T05:05:49Z,IP Address,151.228.161.246,100,155,TRUE,2020-11-18T05:05:49Z,R_3fCqQko0KQrT4Wz,NA,NA,NA,NA,54.98809814453125,-1.6194000244140625,anonymous,EN,practice_loop,flow.Loop,1,NA,NA,completion,4249.039999999994,89772,89772.88,89807.96,94057,94062,2020-11-18T12:04:53Z,94091.52,NA,NA,NA,NA,NA,NA,NA,NA,NA,NA,NA,NA,NA,NA,NA,NA,NA,NA,NA,NA,NA,NA,NA,NA,NA,NA,NA,NA,NA,Yes
2020-11-18T05:03:14Z,2020-11-18T05:05:49Z,IP Address,151.228.161.246,100,155,TRUE,2020-11-18T05:05:49Z,R_3fCqQko0KQrT4Wz,NA,NA,NA,NA,54.98809814453125,-1.6194000244140625,anonymous,EN,instruction_block_1,canvas.Screen,2,end_instructions,keypress(Space),response,429.4799999999959,94062,94074.54,94091.52,94521,94525,2020-11-18T12:04:53Z,94558.18,NA,NA,NA,NA,NA,NA,NA,NA,NA,NA,NA,NA,NA,NA,NA,NA,NA,NA,NA,NA,NA,NA,NA,NA,NA,NA,NA,NA,NA,Yes
2020-11-18T05:03:14Z,2020-11-18T05:05:49Z,IP Address,151.228.161.246,100,155,TRUE,2020-11-18T05:05:49Z,R_3fCqQko0KQrT4Wz,NA,NA,NA,NA,54.98809814453125,-1.6194000244140625,anonymous,EN,fixation_cross,canvas.Screen,3_0_0,end_fixation,keypress(Space),response,694.820000000007,94525,94525.96,94558.18,95253,95257,2020-11-18T12:04:54Z,95291.94,4,1,exp,187,nonsense,transfer,NA,NA,Kashus pounded you the sunglasses.,w,NA,NA,NA,NA,NA,NA,NA,NA,NA,NA,NA,NA,NA,NA,NA,NA,NA,NA,NA,Yes
2020-11-18T05:03:14Z,2020-11-18T05:05:49Z,IP Address,151.228.161.246,100,155,TRUE,2020-11-18T05:05:49Z,R_3fCqQko0KQrT4Wz,NA,NA,NA,NA,54.98809814453125,-1.6194000244140625,anonymous,EN,sentence_screen,canvas.Screen,3_0_1,w,keypress(w),response,345.0599999999977,95257,95257.66,95291.94,95637,95640,2020-11-18T12:04:54Z,95674.54,4,1,exp,187,nonsense,transfer,NA,NA,Kashus pounded you the sunglasses.,w,w,TRUE,NA,NA,NA,NA,NA,NA,NA,NA,NA,NA,NA,NA,NA,NA,NA,NA,NA,Yes
2020-11-18T05:03:14Z,2020-11-18T05:05:49Z,IP Address,151.228.161.246,100,155,TRUE,2020-11-18T05:05:49Z,R_3fCqQko0KQrT4Wz,NA,NA,NA,NA,54.98809814453125,-1.6194000244140625,anonymous,EN,trial,flow.Sequence,3_0,NA,NA,completion,1078.820000000007,94525,94525.96,94558.18,95637,95642,2020-11-18T12:04:54Z,95674.54,4,1,exp,187,nonsense,transfer,NA,NA,Kashus pounded you the sunglasses.,w,NA,NA,NA,NA,NA,NA,NA,NA,NA,NA,NA,NA,NA,NA,NA,NA,NA,NA,NA,Yes
2020-11-18T05:03:14Z,2020-11-18T05:05:49Z,IP Address,151.228.161.246,100,155,TRUE,2020-11-18T05:05:49Z,R_3fCqQko0KQrT4Wz,NA,NA,NA,NA,54.98809814453125,-1.6194000244140625,anonymous,EN,fixation_cross,canvas.Screen,3_1_0,end_fixation,keypress(Space),response,290.4600000000064,95642,95642.24,95674.54,95965,95969,2020-11-18T12:04:55Z,95991.3,4,1,exp,69,sensible,concrete,no_transfer,NA,Tre looked at the land with you.,s,NA,NA,NA,NA,NA,NA,NA,NA,NA,NA,NA,NA,NA,NA,NA,NA,NA,NA,NA,Yes
2020-11-18T05:03:14Z,2020-11-18T05:05:49Z,IP Address,151.228.161.246,100,155,TRUE,2020-11-18T05:05:49Z,R_3fCqQko0KQrT4Wz,NA,NA,NA,NA,54.98809814453125,-1.6194000244140625,anonymous,EN,sentence_screen,canvas.Screen,3_1_1,s,keypress(s),response,305.6999999999971,95969,95965.58,95991.3,96297,96300,2020-11-18T12:04:55Z,96341.14,4,1,exp,69,sensible,concrete,no_transfer,NA,Tre looked at the land with you.,s,s,TRUE,NA,NA,NA,NA,NA,NA,NA,NA,NA,NA,NA,NA,NA,NA,NA,NA,NA,Yes
2020-11-18T05:03:14Z,2020-11-18T05:05:49Z,IP Address,151.228.161.246,100,155,TRUE,2020-11-18T05:05:49Z,R_3fCqQko0KQrT4Wz,NA,NA,NA,NA,54.98809814453125,-1.6194000244140625,anonymous,EN,trial,flow.Sequence,3_1,NA,NA,completion,622.4600000000064,95642,95642.24,95674.54,96297,96300,2020-11-18T12:04:55Z,96341.14,4,1,exp,69,sensible,concrete,no_transfer,NA,Tre looked at the land with you.,s,NA,NA,NA,NA,NA,NA,NA,NA,NA,NA,NA,NA,NA,NA,NA,NA,NA,NA,NA,Yes
2020-11-18T05:03:14Z,2020-11-18T05:05:49Z,IP Address,151.228.161.246,100,155,TRUE,2020-11-18T05:05:49Z,R_3fCqQko0KQrT4Wz,NA,NA,NA,NA,54.98809814453125,-1.6194000244140625,anonymous,EN,fixation_cross,canvas.Screen,3_2_0,end_fixation,keypress(Space),response,519.8600000000006,96301,96302,96341.14,96861,96864,2020-11-18T12:04:56Z,96891.56,4,1,exp,148,nonsense,transfer,NA,NA,You retaliated Keegan the opportunity.,w,NA,NA,NA,NA,NA,NA,NA,NA,NA,NA,NA,NA,NA,NA,NA,NA,NA,NA,NA,Yes
2020-11-18T05:03:14Z,2020-11-18T05:05:49Z,IP Address,151.228.161.246,100,155,TRUE,2020-11-18T05:05:49Z,R_3fCqQko0KQrT4Wz,NA,NA,NA,NA,54.98809814453125,-1.6194000244140625,anonymous,EN,sentence_screen,canvas.Screen,3_2_1,w,keypress(w),response,117.44000000000233,96864,96865.36,96891.56,97009,97012,2020-11-18T12:04:56Z,97041.46,4,1,exp,148,nonsense,transfer,NA,NA,You retaliated Keegan the opportunity.,w,w,TRUE,NA,NA,NA,NA,NA,NA,NA,NA,NA,NA,NA,NA,NA,NA,NA,NA,NA,Yes
2020-11-18T05:03:14Z,2020-11-18T05:05:49Z,IP Address,151.228.161.246,100,155,TRUE,2020-11-18T05:05:49Z,R_3fCqQko0KQrT4Wz,NA,NA,NA,NA,54.98809814453125,-1.6194000244140625,anonymous,EN,trial,flow.Sequence,3_2,NA,NA,completion,667.8600000000006,96301,96302,96341.14,97009,97013,2020-11-18T12:04:56Z,97041.46,4,1,exp,148,nonsense,transfer,NA,NA,You retaliated Keegan the opportunity.,w,NA,NA,NA,NA,NA,NA,NA,NA,NA,NA,NA,NA,NA,NA,NA,NA,NA,NA,NA,Yes
2020-11-18T05:03:14Z,2020-11-18T05:05:49Z,IP Address,151.228.161.246,100,155,TRUE,2020-11-18T05:05:49Z,R_3fCqQko0KQrT4Wz,NA,NA,NA,NA,54.98809814453125,-1.6194000244140625,anonymous,EN,fixation_cross,canvas.Screen,3_3_0,end_fixation,keypress(Space),response,95.5399999999936,97013,97024.8,97041.46,97137,97140,2020-11-18T12:04:56Z,97158.12,4,1,exp,73,sensible,concrete,no_transfer,NA,You donated money with Trae.,s,NA,NA,NA,NA,NA,NA,NA,NA,NA,NA,NA,NA,NA,NA,NA,NA,NA,NA,NA,Yes
2020-11-18T05:03:14Z,2020-11-18T05:05:49Z,IP Address,151.228.161.246,100,155,TRUE,2020-11-18T05:05:49Z,R_3fCqQko0KQrT4Wz,NA,NA,NA,NA,54.98809814453125,-1.6194000244140625,anonymous,EN,sentence_screen,canvas.Screen,3_3_1,w,keypress(w),response,162.88000000000466,97140,97141.1,97158.12,97321,97325,2020-11-18T12:04:56Z,97358.66,4,1,exp,73,sensible,concrete,no_transfer,NA,You donated money with Trae.,s,s,FALSE,NA,NA,NA,NA,NA,NA,NA,NA,NA,NA,NA,NA,NA,NA,NA,NA,NA,Yes
2020-11-18T05:03:14Z,2020-11-18T05:05:49Z,IP Address,151.228.161.246,100,155,TRUE,2020-11-18T05:05:49Z,R_3fCqQko0KQrT4Wz,NA,NA,NA,NA,54.98809814453125,-1.6194000244140625,anonymous,EN,trial,flow.Sequence,3_3,NA,NA,completion,279.5399999999936,97013,97024.8,97041.46,97321,97325,2020-11-18T12:04:56Z,97358.66,4,1,exp,73,sensible,concrete,no_transfer,NA,You donated money with Trae.,s,NA,NA,NA,NA,NA,NA,NA,NA,NA,NA,NA,NA,NA,NA,NA,NA,NA,NA,NA,Yes
2020-11-18T05:03:14Z,2020-11-18T05:05:49Z,IP Address,151.228.161.246,100,155,TRUE,2020-11-18T05:05:49Z,R_3fCqQko0KQrT4Wz,NA,NA,NA,NA,54.98809814453125,-1.6194000244140625,anonymous,EN,fixation_cross,canvas.Screen,3_4_0,end_fixation,keypress(Space),response,90.33999999999651,97325,97341.14,97358.66,97449,97453,2020-11-18T12:04:56Z,97474.54,4,1,exp,156,nonsense,transfer,NA,NA,You filed the box to Martell.,w,NA,NA,NA,NA,NA,NA,NA,NA,NA,NA,NA,NA,NA,NA,NA,NA,NA,NA,NA,Yes
2020-11-18T05:03:14Z,2020-11-18T05:05:49Z,IP Address,151.228.161.246,100,155,TRUE,2020-11-18T05:05:49Z,R_3fCqQko0KQrT4Wz,NA,NA,NA,NA,54.98809814453125,-1.6194000244140625,anonymous,EN,sentence_screen,canvas.Screen,3_4_1,w,keypress(w),response,82.4600000000064,97453,97458.4,97474.54,97557,97561,2020-11-18T12:04:56Z,97591.46,4,1,exp,156,nonsense,transfer,NA,NA,You filed the box to Martell.,w,w,TRUE,NA,NA,NA,NA,NA,NA,NA,NA,NA,NA,NA,NA,NA,NA,NA,NA,NA,Yes
2020-11-18T05:03:14Z,2020-11-18T05:05:49Z,IP Address,151.228.161.246,100,155,TRUE,2020-11-18T05:05:49Z,R_3fCqQko0KQrT4Wz,NA,NA,NA,NA,54.98809814453125,-1.6194000244140625,anonymous,EN,trial,flow.Sequence,3_4,NA,NA,completion,198.3399999999965,97325,97341.14,97358.66,97557,97561,2020-11-18T12:04:56Z,97591.46,4,1,exp,156,nonsense,transfer,NA,NA,You filed the box to Martell.,w,NA,NA,NA,NA,NA,NA,NA,NA,NA,NA,NA,NA,NA,NA,NA,NA,NA,NA,NA,Yes
2020-11-18T05:03:14Z,2020-11-18T05:05:49Z,IP Address,151.228.161.246,100,155,TRUE,2020-11-18T05:05:49Z,R_3fCqQko0KQrT4Wz,NA,NA,NA,NA,54.98809814453125,-1.6194000244140625,anonymous,EN,fixation_cross,canvas.Screen,3_5_0,end_fixation,keypress(Space),response,81.5399999999936,97561,97574.78,97591.46,97673,97676,2020-11-18T12:04:57Z,97708.1,4,1,exp,11,sensible,abstract,transfer,towards,Cory blew you a kiss.,s,NA,NA,NA,NA,NA,NA,NA,NA,NA,NA,NA,NA,NA,NA,NA,NA,NA,NA,NA,Yes
2020-11-18T05:03:14Z,2020-11-18T05:05:49Z,IP Address,151.228.161.246,100,155,TRUE,2020-11-18T05:05:49Z,R_3fCqQko0KQrT4Wz,NA,NA,NA,NA,54.98809814453125,-1.6194000244140625,anonymous,EN,sentence_screen,canvas.Screen,3_5_1,s,keypress(s),response,76.89999999999418,97676,97692,97708.1,97785,97788,2020-11-18T12:04:57Z,97807.76,4,1,exp,11,sensible,abstract,transfer,towards,Cory blew you a kiss.,s,s,TRUE,NA,NA,NA,NA,NA,NA,NA,NA,NA,NA,NA,NA,NA,NA,NA,NA,NA,Yes
2020-11-18T05:03:14Z,2020-11-18T05:05:49Z,IP Address,151.228.161.246,100,155,TRUE,2020-11-18T05:05:49Z,R_3fCqQko0KQrT4Wz,NA,NA,NA,NA,54.98809814453125,-1.6194000244140625,anonymous,EN,trial,flow.Sequence,3_5,NA,NA,completion,193.5399999999936,97561,97574.78,97591.46,97785,97788,2020-11-18T12:04:57Z,97807.76,4,1,exp,11,sensible,abstract,transfer,towards,Cory blew you a kiss.,s,NA,NA,NA,NA,NA,NA,NA,NA,NA,NA,NA,NA,NA,NA,NA,NA,NA,NA,NA,Yes
2020-11-18T05:03:14Z,2020-11-18T05:05:49Z,IP Address,151.228.161.246,100,155,TRUE,2020-11-18T05:05:49Z,R_3fCqQko0KQrT4Wz,NA,NA,NA,NA,54.98809814453125,-1.6194000244140625,anonymous,EN,fixation_cross,canvas.Screen,3_6_0,end_fixation,keypress(Space),response,97.24000000000524,97788,97791.24,97807.76,97905,97908,2020-11-18T12:04:57Z,97942,4,1,exp,142,nonsense,transfer,NA,NA,You bordered Ashlee the chain.,w,NA,NA,NA,NA,NA,NA,NA,NA,NA,NA,NA,NA,NA,NA,NA,NA,NA,NA,NA,Yes
2020-11-18T05:03:14Z,2020-11-18T05:05:49Z,IP Address,151.228.161.246,100,155,TRUE,2020-11-18T05:05:49Z,R_3fCqQko0KQrT4Wz,NA,NA,NA,NA,54.98809814453125,-1.6194000244140625,anonymous,EN,sentence_screen,canvas.Screen,3_6_1,s,keypress(s),response,103,97908,97925.28,97942,98045,98048,2020-11-18T12:04:57Z,98074.46,4,1,exp,142,nonsense,transfer,NA,NA,You bordered Ashlee the chain.,w,w,FALSE,NA,NA,NA,NA,NA,NA,NA,NA,NA,NA,NA,NA,NA,NA,NA,NA,NA,Yes
2020-11-18T05:03:14Z,2020-11-18T05:05:49Z,IP Address,151.228.161.246,100,155,TRUE,2020-11-18T05:05:49Z,R_3fCqQko0KQrT4Wz,NA,NA,NA,NA,54.98809814453125,-1.6194000244140625,anonymous,EN,trial,flow.Sequence,3_6,NA,NA,completion,237.24000000000524,97788,97791.24,97807.76,98045,98048,2020-11-18T12:04:57Z,98074.46,4,1,exp,142,nonsense,transfer,NA,NA,You bordered Ashlee the chain.,w,NA,NA,NA,NA,NA,NA,NA,NA,NA,NA,NA,NA,NA,NA,NA,NA,NA,NA,NA,Yes
2020-11-18T05:03:14Z,2020-11-18T05:05:49Z,IP Address,151.228.161.246,100,155,TRUE,2020-11-18T05:05:49Z,R_3fCqQko0KQrT4Wz,NA,NA,NA,NA,54.98809814453125,-1.6194000244140625,anonymous,EN,fixation_cross,canvas.Screen,3_7_0,end_fixation,keypress(Space),response,82.5399999999936,98048,98058.1,98074.46,98157,98160,2020-11-18T12:04:57Z,98191.7,4,1,exp,76,sensible,concrete,no_transfer,NA,You found the key with Rudi.,s,NA,NA,NA,NA,NA,NA,NA,NA,NA,NA,NA,NA,NA,NA,NA,NA,NA,NA,NA,Yes
2020-11-18T05:03:14Z,2020-11-18T05:05:49Z,IP Address,151.228.161.246,100,155,TRUE,2020-11-18T05:05:49Z,R_3fCqQko0KQrT4Wz,NA,NA,NA,NA,54.98809814453125,-1.6194000244140625,anonymous,EN,sentence_screen,canvas.Screen,3_7_1,s,keypress(s),response,109.30000000000291,98160,98175.3,98191.7,98301,98304,2020-11-18T12:04:57Z,98325.28,4,1,exp,76,sensible,concrete,no_transfer,NA,You found the key with Rudi.,s,s,TRUE,NA,NA,NA,NA,NA,NA,NA,NA,NA,NA,NA,NA,NA,NA,NA,NA,NA,Yes
2020-11-18T05:03:14Z,2020-11-18T05:05:49Z,IP Address,151.228.161.246,100,155,TRUE,2020-11-18T05:05:49Z,R_3fCqQko0KQrT4Wz,NA,NA,NA,NA,54.98809814453125,-1.6194000244140625,anonymous,EN,trial,flow.Sequence,3_7,NA,NA,completion,226.5399999999936,98048,98058.1,98074.46,98301,98304,2020-11-18T12:04:57Z,98325.28,4,1,exp,76,sensible,concrete,no_transfer,NA,You found the key with Rudi.,s,NA,NA,NA,NA,NA,NA,NA,NA,NA,NA,NA,NA,NA,NA,NA,NA,NA,NA,NA,Yes
2020-11-18T05:03:14Z,2020-11-18T05:05:49Z,IP Address,151.228.161.246,100,155,TRUE,2020-11-18T05:05:49Z,R_3fCqQko0KQrT4Wz,NA,NA,NA,NA,54.98809814453125,-1.6194000244140625,anonymous,EN,fixation_cross,canvas.Screen,3_8_0,end_fixation,keypress(Space),response,95.72000000000116,98304,98308.62,98325.28,98421,98425,2020-11-18T12:04:57Z,98458.1,4,1,exp,177,nonsense,transfer,NA,NA,You floundered the train to Marcus.,w,NA,NA,NA,NA,NA,NA,NA,NA,NA,NA,NA,NA,NA,NA,NA,NA,NA,NA,NA,Yes
2020-11-18T05:03:14Z,2020-11-18T05:05:49Z,IP Address,151.228.161.246,100,155,TRUE,2020-11-18T05:05:49Z,R_3fCqQko0KQrT4Wz,NA,NA,NA,NA,54.98809814453125,-1.6194000244140625,anonymous,EN,sentence_screen,canvas.Screen,3_8_1,w,keypress(w),response,94.89999999999418,98425,98441.48,98458.1,98553,98556,2020-11-18T12:04:57Z,98574.76,4,1,exp,177,nonsense,transfer,NA,NA,You floundered the train to Marcus.,w,w,TRUE,NA,NA,NA,NA,NA,NA,NA,NA,NA,NA,NA,NA,NA,NA,NA,NA,NA,Yes
2020-11-18T05:03:14Z,2020-11-18T05:05:49Z,IP Address,151.228.161.246,100,155,TRUE,2020-11-18T05:05:49Z,R_3fCqQko0KQrT4Wz,NA,NA,NA,NA,54.98809814453125,-1.6194000244140625,anonymous,EN,trial,flow.Sequence,3_8,NA,NA,completion,227.72000000000116,98304,98308.62,98325.28,98553,98556,2020-11-18T12:04:57Z,98574.76,4,1,exp,177,nonsense,transfer,NA,NA,You floundered the train to Marcus.,w,NA,NA,NA,NA,NA,NA,NA,NA,NA,NA,NA,NA,NA,NA,NA,NA,NA,NA,NA,Yes
2020-11-18T05:03:14Z,2020-11-18T05:05:49Z,IP Address,151.228.161.246,100,155,TRUE,2020-11-18T05:05:49Z,R_3fCqQko0KQrT4Wz,NA,NA,NA,NA,54.98809814453125,-1.6194000244140625,anonymous,EN,fixation_cross,canvas.Screen,3_9_0,end_fixation,keypress(Space),response,82.24000000000524,98556,98557.62,98574.76,98657,98660,2020-11-18T12:04:58Z,98691.42,4,1,exp,72,sensible,concrete,no_transfer,NA,Cassandra and you shared the notebook.,s,NA,NA,NA,NA,NA,NA,NA,NA,NA,NA,NA,NA,NA,NA,NA,NA,NA,NA,NA,Yes
2020-11-18T05:03:14Z,2020-11-18T05:05:49Z,IP Address,151.228.161.246,100,155,TRUE,2020-11-18T05:05:49Z,R_3fCqQko0KQrT4Wz,NA,NA,NA,NA,54.98809814453125,-1.6194000244140625,anonymous,EN,sentence_screen,canvas.Screen,3_9_1,w,keypress(w),response,101.58000000000175,98661,98674.42,98691.42,98793,98796,2020-11-18T12:04:58Z,98824.76,4,1,exp,72,sensible,concrete,no_transfer,NA,Cassandra and you shared the notebook.,s,s,FALSE,NA,NA,NA,NA,NA,NA,NA,NA,NA,NA,NA,NA,NA,NA,NA,NA,NA,Yes
2020-11-18T05:03:14Z,2020-11-18T05:05:49Z,IP Address,151.228.161.246,100,155,TRUE,2020-11-18T05:05:49Z,R_3fCqQko0KQrT4Wz,NA,NA,NA,NA,54.98809814453125,-1.6194000244140625,anonymous,EN,trial,flow.Sequence,3_9,NA,NA,completion,218.24000000000524,98556,98557.62,98574.76,98793,98798,2020-11-18T12:04:58Z,98824.76,4,1,exp,72,sensible,concrete,no_transfer,NA,Cassandra and you shared the notebook.,s,NA,NA,NA,NA,NA,NA,NA,NA,NA,NA,NA,NA,NA,NA,NA,NA,NA,NA,NA,Yes
2020-11-18T05:03:14Z,2020-11-18T05:05:49Z,IP Address,151.228.161.246,100,155,TRUE,2020-11-18T05:05:49Z,R_3fCqQko0KQrT4Wz,NA,NA,NA,NA,54.98809814453125,-1.6194000244140625,anonymous,EN,fixation_cross,canvas.Screen,3_10_0,end_fixation,keypress(Space),response,92.24000000000524,98798,98807.64,98824.76,98917,98920,2020-11-18T12:04:58Z,98941.1,4,1,exp,67,sensible,concrete,no_transfer,NA,Carah looked for the pen with you.,s,NA,NA,NA,NA,NA,NA,NA,NA,NA,NA,NA,NA,NA,NA,NA,NA,NA,NA,NA,Yes
2020-11-18T05:03:14Z,2020-11-18T05:05:49Z,IP Address,151.228.161.246,100,155,TRUE,2020-11-18T05:05:49Z,R_3fCqQko0KQrT4Wz,NA,NA,NA,NA,54.98809814453125,-1.6194000244140625,anonymous,EN,sentence_screen,canvas.Screen,3_10_1,w,keypress(w),response,107.89999999999418,98920,98925.06,98941.1,99049,99052,2020-11-18T12:04:58Z,99074.38,4,1,exp,67,sensible,concrete,no_transfer,NA,Carah looked for the pen with you.,s,s,FALSE,NA,NA,NA,NA,NA,NA,NA,NA,NA,NA,NA,NA,NA,NA,NA,NA,NA,Yes
2020-11-18T05:03:14Z,2020-11-18T05:05:49Z,IP Address,151.228.161.246,100,155,TRUE,2020-11-18T05:05:49Z,R_3fCqQko0KQrT4Wz,NA,NA,NA,NA,54.98809814453125,-1.6194000244140625,anonymous,EN,trial,flow.Sequence,3_10,NA,NA,completion,224.24000000000524,98798,98807.64,98824.76,99049,99052,2020-11-18T12:04:58Z,99074.38,4,1,exp,67,sensible,concrete,no_transfer,NA,Carah looked for the pen with you.,s,NA,NA,NA,NA,NA,NA,NA,NA,NA,NA,NA,NA,NA,NA,NA,NA,NA,NA,NA,Yes
2020-11-18T05:03:14Z,2020-11-18T05:05:49Z,IP Address,151.228.161.246,100,155,TRUE,2020-11-18T05:05:49Z,R_3fCqQko0KQrT4Wz,NA,NA,NA,NA,54.98809814453125,-1.6194000244140625,anonymous,EN,fixation_cross,canvas.Screen,3_11_0,end_fixation,keypress(Space),response,70.61999999999534,99052,99058.42,99074.38,99145,99149,2020-11-18T12:04:58Z,99174.86,4,1,exp,39,sensible,concrete,transfer,towards,Jason hit you the baseball.,s,NA,NA,NA,NA,NA,NA,NA,NA,NA,NA,NA,NA,NA,NA,NA,NA,NA,NA,NA,Yes
2020-11-18T05:03:14Z,2020-11-18T05:05:49Z,IP Address,151.228.161.246,100,155,TRUE,2020-11-18T05:05:49Z,R_3fCqQko0KQrT4Wz,NA,NA,NA,NA,54.98809814453125,-1.6194000244140625,anonymous,EN,sentence_screen,canvas.Screen,3_11_1,w,keypress(w),response,62.13999999999942,99149,99158.28,99174.86,99237,99240,2020-11-18T12:04:58Z,99258.16,4,1,exp,39,sensible,concrete,transfer,towards,Jason hit you the baseball.,s,s,FALSE,NA,NA,NA,NA,NA,NA,NA,NA,NA,NA,NA,NA,NA,NA,NA,NA,NA,Yes
2020-11-18T05:03:14Z,2020-11-18T05:05:49Z,IP Address,151.228.161.246,100,155,TRUE,2020-11-18T05:05:49Z,R_3fCqQko0KQrT4Wz,NA,NA,NA,NA,54.98809814453125,-1.6194000244140625,anonymous,EN,trial,flow.Sequence,3_11,NA,NA,completion,162.61999999999534,99052,99058.42,99074.38,99237,99241,2020-11-18T12:04:58Z,99258.16,4,1,exp,39,sensible,concrete,transfer,towards,Jason hit you the baseball.,s,NA,NA,NA,NA,NA,NA,NA,NA,NA,NA,NA,NA,NA,NA,NA,NA,NA,NA,NA,Yes
2020-11-18T05:03:14Z,2020-11-18T05:05:49Z,IP Address,151.228.161.246,100,155,TRUE,2020-11-18T05:05:49Z,R_3fCqQko0KQrT4Wz,NA,NA,NA,NA,54.98809814453125,-1.6194000244140625,anonymous,EN,fixation_cross,canvas.Screen,3_12_0,end_fixation,keypress(Space),response,90.83999999999651,99241,99241.16,99258.16,99349,99352,2020-11-18T12:04:58Z,99374.76,4,1,exp,151,nonsense,transfer,NA,NA,You radioed the floor with Joseph.,w,NA,NA,NA,NA,NA,NA,NA,NA,NA,NA,NA,NA,NA,NA,NA,NA,NA,NA,NA,Yes
2020-11-18T05:03:14Z,2020-11-18T05:05:49Z,IP Address,151.228.161.246,100,155,TRUE,2020-11-18T05:05:49Z,R_3fCqQko0KQrT4Wz,NA,NA,NA,NA,54.98809814453125,-1.6194000244140625,anonymous,EN,sentence_screen,canvas.Screen,3_12_1,w,keypress(w),response,42.24000000000524,99352,99358,99374.76,99417,99421,2020-11-18T12:04:58Z,99441.98,4,1,exp,151,nonsense,transfer,NA,NA,You radioed the floor with Joseph.,w,w,TRUE,NA,NA,NA,NA,NA,NA,NA,NA,NA,NA,NA,NA,NA,NA,NA,NA,NA,Yes
2020-11-18T05:03:14Z,2020-11-18T05:05:49Z,IP Address,151.228.161.246,100,155,TRUE,2020-11-18T05:05:49Z,R_3fCqQko0KQrT4Wz,NA,NA,NA,NA,54.98809814453125,-1.6194000244140625,anonymous,EN,trial,flow.Sequence,3_12,NA,NA,completion,158.8399999999965,99241,99241.16,99258.16,99417,99421,2020-11-18T12:04:58Z,99441.98,4,1,exp,151,nonsense,transfer,NA,NA,You radioed the floor with Joseph.,w,NA,NA,NA,NA,NA,NA,NA,NA,NA,NA,NA,NA,NA,NA,NA,NA,NA,NA,NA,Yes
2020-11-18T05:03:14Z,2020-11-18T05:05:49Z,IP Address,151.228.161.246,100,155,TRUE,2020-11-18T05:05:49Z,R_3fCqQko0KQrT4Wz,NA,NA,NA,NA,54.98809814453125,-1.6194000244140625,anonymous,EN,fixation_cross,canvas.Screen,3_13_0,end_fixation,keypress(Space),response,127.02000000000407,99421,99425.28,99441.98,99569,99572,2020-11-18T12:04:58Z,99591.8,4,1,exp,40,sensible,concrete,transfer,away,You dispensed the rations to Travis.,s,NA,NA,NA,NA,NA,NA,NA,NA,NA,NA,NA,NA,NA,NA,NA,NA,NA,NA,NA,Yes
2020-11-18T05:03:14Z,2020-11-18T05:05:49Z,IP Address,151.228.161.246,100,155,TRUE,2020-11-18T05:05:49Z,R_3fCqQko0KQrT4Wz,NA,NA,NA,NA,54.98809814453125,-1.6194000244140625,anonymous,EN,sentence_screen,canvas.Screen,3_13_1,s,keypress(s),response,45.19999999999709,99573,99574.38,99591.8,99637,99641,2020-11-18T12:04:58Z,99658.04,4,1,exp,40,sensible,concrete,transfer,away,You dispensed the rations to Travis.,s,s,TRUE,NA,NA,NA,NA,NA,NA,NA,NA,NA,NA,NA,NA,NA,NA,NA,NA,NA,Yes
2020-11-18T05:03:14Z,2020-11-18T05:05:49Z,IP Address,151.228.161.246,100,155,TRUE,2020-11-18T05:05:49Z,R_3fCqQko0KQrT4Wz,NA,NA,NA,NA,54.98809814453125,-1.6194000244140625,anonymous,EN,trial,flow.Sequence,3_13,NA,NA,completion,195.02000000000407,99421,99425.28,99441.98,99637,99641,2020-11-18T12:04:58Z,99658.04,4,1,exp,40,sensible,concrete,transfer,away,You dispensed the rations to Travis.,s,NA,NA,NA,NA,NA,NA,NA,NA,NA,NA,NA,NA,NA,NA,NA,NA,NA,NA,NA,Yes
2020-11-18T05:03:14Z,2020-11-18T05:05:49Z,IP Address,151.228.161.246,100,155,TRUE,2020-11-18T05:05:49Z,R_3fCqQko0KQrT4Wz,NA,NA,NA,NA,54.98809814453125,-1.6194000244140625,anonymous,EN,fixation_cross,canvas.Screen,3_14_0,end_fixation,keypress(Space),response,114.9600000000064,99641,99641.16,99658.04,99773,99777,2020-11-18T12:04:59Z,99807.76,4,1,exp,175,nonsense,transfer,NA,NA,Ariunzaya joked the ice cream to you.,w,NA,NA,NA,NA,NA,NA,NA,NA,NA,NA,NA,NA,NA,NA,NA,NA,NA,NA,NA,Yes
2020-11-18T05:03:14Z,2020-11-18T05:05:49Z,IP Address,151.228.161.246,100,155,TRUE,2020-11-18T05:05:49Z,R_3fCqQko0KQrT4Wz,NA,NA,NA,NA,54.98809814453125,-1.6194000244140625,anonymous,EN,sentence_screen,canvas.Screen,3_14_1,w,keypress(w),response,29.24000000000524,99777,99791.84,99807.76,99837,99840,2020-11-18T12:04:59Z,99858.36,4,1,exp,175,nonsense,transfer,NA,NA,Ariunzaya joked the ice cream to you.,w,w,TRUE,NA,NA,NA,NA,NA,NA,NA,NA,NA,NA,NA,NA,NA,NA,NA,NA,NA,Yes
2020-11-18T05:03:14Z,2020-11-18T05:05:49Z,IP Address,151.228.161.246,100,155,TRUE,2020-11-18T05:05:49Z,R_3fCqQko0KQrT4Wz,NA,NA,NA,NA,54.98809814453125,-1.6194000244140625,anonymous,EN,trial,flow.Sequence,3_14,NA,NA,completion,178.9600000000064,99641,99641.16,99658.04,99837,99841,2020-11-18T12:04:59Z,99858.36,4,1,exp,175,nonsense,transfer,NA,NA,Ariunzaya joked the ice cream to you.,w,NA,NA,NA,NA,NA,NA,NA,NA,NA,NA,NA,NA,NA,NA,NA,NA,NA,NA,NA,Yes
2020-11-18T05:03:14Z,2020-11-18T05:05:49Z,IP Address,151.228.161.246,100,155,TRUE,2020-11-18T05:05:49Z,R_3fCqQko0KQrT4Wz,NA,NA,NA,NA,54.98809814453125,-1.6194000244140625,anonymous,EN,fixation_cross,canvas.Screen,3_15_0,end_fixation,keypress(Space),response,94.63999999999942,99841,99841.06,99858.36,99953,99956,2020-11-18T12:04:59Z,99974.78,4,1,exp,36,sensible,concrete,transfer,away,You delivered the pizza to Ummu Kulthoom.,s,NA,NA,NA,NA,NA,NA,NA,NA,NA,NA,NA,NA,NA,NA,NA,NA,NA,NA,NA,Yes
2020-11-18T05:03:14Z,2020-11-18T05:05:49Z,IP Address,151.228.161.246,100,155,TRUE,2020-11-18T05:05:49Z,R_3fCqQko0KQrT4Wz,NA,NA,NA,NA,54.98809814453125,-1.6194000244140625,anonymous,EN,sentence_screen,canvas.Screen,3_15_1,w,keypress(w),response,110.22000000000116,99956,99957.66,99974.78,100085,100088,2020-11-18T12:04:59Z,100108.06,4,1,exp,36,sensible,concrete,transfer,away,You delivered the pizza to Ummu Kulthoom.,s,s,FALSE,NA,NA,NA,NA,NA,NA,NA,NA,NA,NA,NA,NA,NA,NA,NA,NA,NA,Yes
2020-11-18T05:03:14Z,2020-11-18T05:05:49Z,IP Address,151.228.161.246,100,155,TRUE,2020-11-18T05:05:49Z,R_3fCqQko0KQrT4Wz,NA,NA,NA,NA,54.98809814453125,-1.6194000244140625,anonymous,EN,trial,flow.Sequence,3_15,NA,NA,completion,226.63999999999942,99841,99841.06,99858.36,100085,100088,2020-11-18T12:04:59Z,100108.06,4,1,exp,36,sensible,concrete,transfer,away,You delivered the pizza to Ummu Kulthoom.,s,NA,NA,NA,NA,NA,NA,NA,NA,NA,NA,NA,NA,NA,NA,NA,NA,NA,NA,NA,Yes
2020-11-18T05:03:14Z,2020-11-18T05:05:49Z,IP Address,151.228.161.246,100,155,TRUE,2020-11-18T05:05:49Z,R_3fCqQko0KQrT4Wz,NA,NA,NA,NA,54.98809814453125,-1.6194000244140625,anonymous,EN,fixation_cross,canvas.Screen,3_16_0,end_fixation,keypress(Space),response,141.94000000000233,100089,100091.32,100108.06,100250,100252,2020-11-18T12:04:59Z,100274.5,4,1,exp,14,sensible,abstract,transfer,away,You told Ghaamid the story.,s,NA,NA,NA,NA,NA,NA,NA,NA,NA,NA,NA,NA,NA,NA,NA,NA,NA,NA,NA,Yes
2020-11-18T05:03:14Z,2020-11-18T05:05:49Z,IP Address,151.228.161.246,100,155,TRUE,2020-11-18T05:05:49Z,R_3fCqQko0KQrT4Wz,NA,NA,NA,NA,54.98809814453125,-1.6194000244140625,anonymous,EN,sentence_screen,canvas.Screen,3_16_1,s,keypress(s),response,30.5,100252,100258.06,100274.5,100305,100308,2020-11-18T12:04:59Z,100341.06,4,1,exp,14,sensible,abstract,transfer,away,You told Ghaamid the story.,s,s,TRUE,NA,NA,NA,NA,NA,NA,NA,NA,NA,NA,NA,NA,NA,NA,NA,NA,NA,Yes
2020-11-18T05:03:14Z,2020-11-18T05:05:49Z,IP Address,151.228.161.246,100,155,TRUE,2020-11-18T05:05:49Z,R_3fCqQko0KQrT4Wz,NA,NA,NA,NA,54.98809814453125,-1.6194000244140625,anonymous,EN,trial,flow.Sequence,3_16,NA,NA,completion,196.94000000000233,100089,100091.32,100108.06,100305,100309,2020-11-18T12:04:59Z,100341.06,4,1,exp,14,sensible,abstract,transfer,away,You told Ghaamid the story.,s,NA,NA,NA,NA,NA,NA,NA,NA,NA,NA,NA,NA,NA,NA,NA,NA,NA,NA,NA,Yes
2020-11-18T05:03:14Z,2020-11-18T05:05:49Z,IP Address,151.228.161.246,100,155,TRUE,2020-11-18T05:05:49Z,R_3fCqQko0KQrT4Wz,NA,NA,NA,NA,54.98809814453125,-1.6194000244140625,anonymous,EN,fixation_cross,canvas.Screen,3_17_0,end_fixation,keypress(Space),response,87.94000000000233,100309,100325.18,100341.06,100429,100432,2020-11-18T12:04:59Z,100458.38,4,1,exp,189,nonsense,transfer,NA,NA,Eric matched the phone to you.,w,NA,NA,NA,NA,NA,NA,NA,NA,NA,NA,NA,NA,NA,NA,NA,NA,NA,NA,NA,Yes
2020-11-18T05:03:14Z,2020-11-18T05:05:49Z,IP Address,151.228.161.246,100,155,TRUE,2020-11-18T05:05:49Z,R_3fCqQko0KQrT4Wz,NA,NA,NA,NA,54.98809814453125,-1.6194000244140625,anonymous,EN,sentence_screen,canvas.Screen,3_17_1,s,keypress(s),response,74.61999999999534,100432,100441.98,100458.38,100533,100536,2020-11-18T12:04:59Z,100558.04,4,1,exp,189,nonsense,transfer,NA,NA,Eric matched the phone to you.,w,w,FALSE,NA,NA,NA,NA,NA,NA,NA,NA,NA,NA,NA,NA,NA,NA,NA,NA,NA,Yes
2020-11-18T05:03:14Z,2020-11-18T05:05:49Z,IP Address,151.228.161.246,100,155,TRUE,2020-11-18T05:05:49Z,R_3fCqQko0KQrT4Wz,NA,NA,NA,NA,54.98809814453125,-1.6194000244140625,anonymous,EN,trial,flow.Sequence,3_17,NA,NA,completion,191.94000000000233,100309,100325.18,100341.06,100533,100536,2020-11-18T12:04:59Z,100558.04,4,1,exp,189,nonsense,transfer,NA,NA,Eric matched the phone to you.,w,NA,NA,NA,NA,NA,NA,NA,NA,NA,NA,NA,NA,NA,NA,NA,NA,NA,NA,NA,Yes
2020-11-18T05:03:14Z,2020-11-18T05:05:49Z,IP Address,151.228.161.246,100,155,TRUE,2020-11-18T05:05:49Z,R_3fCqQko0KQrT4Wz,NA,NA,NA,NA,54.98809814453125,-1.6194000244140625,anonymous,EN,fixation_cross,canvas.Screen,3_18_0,end_fixation,keypress(Space),response,50.9600000000064,100537,100541.08,100558.04,100609,100612,2020-11-18T12:04:59Z,100641.32,4,1,exp,61,sensible,concrete,no_transfer,NA,Juliette combed the puppy with you.,s,NA,NA,NA,NA,NA,NA,NA,NA,NA,NA,NA,NA,NA,NA,NA,NA,NA,NA,NA,Yes
2020-11-18T05:03:14Z,2020-11-18T05:05:49Z,IP Address,151.228.161.246,100,155,TRUE,2020-11-18T05:05:49Z,R_3fCqQko0KQrT4Wz,NA,NA,NA,NA,54.98809814453125,-1.6194000244140625,anonymous,EN,sentence_screen,canvas.Screen,3_18_1,s,keypress(s),response,67.67999999999302,100612,100624.64,100641.32,100709,100713,2020-11-18T12:05:00Z,100741.04,4,1,exp,61,sensible,concrete,no_transfer,NA,Juliette combed the puppy with you.,s,s,TRUE,NA,NA,NA,NA,NA,NA,NA,NA,NA,NA,NA,NA,NA,NA,NA,NA,NA,Yes
2020-11-18T05:03:14Z,2020-11-18T05:05:49Z,IP Address,151.228.161.246,100,155,TRUE,2020-11-18T05:05:49Z,R_3fCqQko0KQrT4Wz,NA,NA,NA,NA,54.98809814453125,-1.6194000244140625,anonymous,EN,trial,flow.Sequence,3_18,NA,NA,completion,150.9600000000064,100536,100541.08,100558.04,100709,100713,2020-11-18T12:05:00Z,100741.04,4,1,exp,61,sensible,concrete,no_transfer,NA,Juliette combed the puppy with you.,s,NA,NA,NA,NA,NA,NA,NA,NA,NA,NA,NA,NA,NA,NA,NA,NA,NA,NA,NA,Yes
2020-11-18T05:03:14Z,2020-11-18T05:05:49Z,IP Address,151.228.161.246,100,155,TRUE,2020-11-18T05:05:49Z,R_3fCqQko0KQrT4Wz,NA,NA,NA,NA,54.98809814453125,-1.6194000244140625,anonymous,EN,fixation_cross,canvas.Screen,3_19_0,end_fixation,keypress(Space),response,63.9600000000064,100713,100724.84,100741.04,100805,100809,2020-11-18T12:05:00Z,100841.38,4,1,exp,18,sensible,abstract,transfer,away,You bestowed the honor upon Spencer.,s,NA,NA,NA,NA,NA,NA,NA,NA,NA,NA,NA,NA,NA,NA,NA,NA,NA,NA,NA,Yes
2020-11-18T05:03:14Z,2020-11-18T05:05:49Z,IP Address,151.228.161.246,100,155,TRUE,2020-11-18T05:05:49Z,R_3fCqQko0KQrT4Wz,NA,NA,NA,NA,54.98809814453125,-1.6194000244140625,anonymous,EN,sentence_screen,canvas.Screen,3_19_1,s,keypress(s),response,18.619999999995343,100809,100825.36,100841.38,100860,100864,2020-11-18T12:05:00Z,100891.24,4,1,exp,18,sensible,abstract,transfer,away,You bestowed the honor upon Spencer.,s,s,TRUE,NA,NA,NA,NA,NA,NA,NA,NA,NA,NA,NA,NA,NA,NA,NA,NA,NA,Yes
2020-11-18T05:03:14Z,2020-11-18T05:05:49Z,IP Address,151.228.161.246,100,155,TRUE,2020-11-18T05:05:49Z,R_3fCqQko0KQrT4Wz,NA,NA,NA,NA,54.98809814453125,-1.6194000244140625,anonymous,EN,trial,flow.Sequence,3_19,NA,NA,completion,118.9600000000064,100713,100724.84,100741.04,100860,100864,2020-11-18T12:05:00Z,100891.24,4,1,exp,18,sensible,abstract,transfer,away,You bestowed the honor upon Spencer.,s,NA,NA,NA,NA,NA,NA,NA,NA,NA,NA,NA,NA,NA,NA,NA,NA,NA,NA,NA,Yes
2020-11-18T05:03:14Z,2020-11-18T05:05:49Z,IP Address,151.228.161.246,100,155,TRUE,2020-11-18T05:05:49Z,R_3fCqQko0KQrT4Wz,NA,NA,NA,NA,54.98809814453125,-1.6194000244140625,anonymous,EN,fixation_cross,canvas.Screen,3_20_0,end_fixation,keypress(Space),response,88.75999999999476,100864,100874.44,100891.24,100980,100984,2020-11-18T12:05:00Z,101007.92,4,1,exp,158,nonsense,transfer,NA,NA,You cleaned the puppy to Rashaa.,w,NA,NA,NA,NA,NA,NA,NA,NA,NA,NA,NA,NA,NA,NA,NA,NA,NA,NA,NA,Yes
2020-11-18T05:03:14Z,2020-11-18T05:05:49Z,IP Address,151.228.161.246,100,155,TRUE,2020-11-18T05:05:49Z,R_3fCqQko0KQrT4Wz,NA,NA,NA,NA,54.98809814453125,-1.6194000244140625,anonymous,EN,sentence_screen,canvas.Screen,3_20_1,w,keypress(w),response,49.080000000001746,100984,100991.2,101007.92,101057,101061,2020-11-18T12:05:00Z,101091.4,4,1,exp,158,nonsense,transfer,NA,NA,You cleaned the puppy to Rashaa.,w,w,TRUE,NA,NA,NA,NA,NA,NA,NA,NA,NA,NA,NA,NA,NA,NA,NA,NA,NA,Yes
2020-11-18T05:03:14Z,2020-11-18T05:05:49Z,IP Address,151.228.161.246,100,155,TRUE,2020-11-18T05:05:49Z,R_3fCqQko0KQrT4Wz,NA,NA,NA,NA,54.98809814453125,-1.6194000244140625,anonymous,EN,trial,flow.Sequence,3_20,NA,NA,completion,165.75999999999476,100864,100874.44,100891.24,101057,101061,2020-11-18T12:05:00Z,101091.4,4,1,exp,158,nonsense,transfer,NA,NA,You cleaned the puppy to Rashaa.,w,NA,NA,NA,NA,NA,NA,NA,NA,NA,NA,NA,NA,NA,NA,NA,NA,NA,NA,NA,Yes
2020-11-18T05:03:14Z,2020-11-18T05:05:49Z,IP Address,151.228.161.246,100,155,TRUE,2020-11-18T05:05:49Z,R_3fCqQko0KQrT4Wz,NA,NA,NA,NA,54.98809814453125,-1.6194000244140625,anonymous,EN,fixation_cross,canvas.Screen,3_21_0,end_fixation,keypress(Space),response,77.60000000000582,101061,101074.34,101091.4,101169,101173,2020-11-18T12:05:00Z,101191.32,4,1,exp,13,sensible,abstract,transfer,towards,Umaira gave you another chance.,s,NA,NA,NA,NA,NA,NA,NA,NA,NA,NA,NA,NA,NA,NA,NA,NA,NA,NA,NA,Yes
2020-11-18T05:03:14Z,2020-11-18T05:05:49Z,IP Address,151.228.161.246,100,155,TRUE,2020-11-18T05:05:49Z,R_3fCqQko0KQrT4Wz,NA,NA,NA,NA,54.98809814453125,-1.6194000244140625,anonymous,EN,sentence_screen,canvas.Screen,3_21_1,w,keypress(w),response,37.679999999993015,101173,101174.52,101191.32,101229,101232,2020-11-18T12:05:00Z,101257.9,4,1,exp,13,sensible,abstract,transfer,towards,Umaira gave you another chance.,s,s,FALSE,NA,NA,NA,NA,NA,NA,NA,NA,NA,NA,NA,NA,NA,NA,NA,NA,NA,Yes
2020-11-18T05:03:14Z,2020-11-18T05:05:49Z,IP Address,151.228.161.246,100,155,TRUE,2020-11-18T05:05:49Z,R_3fCqQko0KQrT4Wz,NA,NA,NA,NA,54.98809814453125,-1.6194000244140625,anonymous,EN,trial,flow.Sequence,3_21,NA,NA,completion,137.60000000000582,101061,101074.34,101091.4,101229,101232,2020-11-18T12:05:00Z,101257.9,4,1,exp,13,sensible,abstract,transfer,towards,Umaira gave you another chance.,s,NA,NA,NA,NA,NA,NA,NA,NA,NA,NA,NA,NA,NA,NA,NA,NA,NA,NA,NA,Yes
2020-11-18T05:03:14Z,2020-11-18T05:05:49Z,IP Address,151.228.161.246,100,155,TRUE,2020-11-18T05:05:49Z,R_3fCqQko0KQrT4Wz,NA,NA,NA,NA,54.98809814453125,-1.6194000244140625,anonymous,EN,fixation_cross,canvas.Screen,3_22_0,end_fixation,keypress(Space),response,94.10000000000582,101232,101241.98,101257.9,101352,101355,2020-11-18T12:05:00Z,101374.7,4,1,exp,164,nonsense,transfer,NA,NA,You laughed the pen to Nicole.,w,NA,NA,NA,NA,NA,NA,NA,NA,NA,NA,NA,NA,NA,NA,NA,NA,NA,NA,NA,Yes
2020-11-18T05:03:14Z,2020-11-18T05:05:49Z,IP Address,151.228.161.246,100,155,TRUE,2020-11-18T05:05:49Z,R_3fCqQko0KQrT4Wz,NA,NA,NA,NA,54.98809814453125,-1.6194000244140625,anonymous,EN,sentence_screen,canvas.Screen,3_22_1,w,keypress(w),response,30.30000000000291,101355,101357.96,101374.7,101405,101408,2020-11-18T12:05:00Z,101441.48,4,1,exp,164,nonsense,transfer,NA,NA,You laughed the pen to Nicole.,w,w,TRUE,NA,NA,NA,NA,NA,NA,NA,NA,NA,NA,NA,NA,NA,NA,NA,NA,NA,Yes
2020-11-18T05:03:14Z,2020-11-18T05:05:49Z,IP Address,151.228.161.246,100,155,TRUE,2020-11-18T05:05:49Z,R_3fCqQko0KQrT4Wz,NA,NA,NA,NA,54.98809814453125,-1.6194000244140625,anonymous,EN,trial,flow.Sequence,3_22,NA,NA,completion,147.10000000000582,101232,101241.98,101257.9,101405,101409,2020-11-18T12:05:00Z,101441.48,4,1,exp,164,nonsense,transfer,NA,NA,You laughed the pen to Nicole.,w,NA,NA,NA,NA,NA,NA,NA,NA,NA,NA,NA,NA,NA,NA,NA,NA,NA,NA,NA,Yes
2020-11-18T05:03:14Z,2020-11-18T05:05:49Z,IP Address,151.228.161.246,100,155,TRUE,2020-11-18T05:05:49Z,R_3fCqQko0KQrT4Wz,NA,NA,NA,NA,54.98809814453125,-1.6194000244140625,anonymous,EN,fixation_cross,canvas.Screen,3_23_0,end_fixation,keypress(Space),response,94.52000000000407,101410,101425.3,101441.48,101536,101539,2020-11-18T12:05:00Z,101558.04,4,1,exp,77,sensible,concrete,no_transfer,NA,Esmeralda watched football with you.,s,NA,NA,NA,NA,NA,NA,NA,NA,NA,NA,NA,NA,NA,NA,NA,NA,NA,NA,NA,Yes
2020-11-18T05:03:14Z,2020-11-18T05:05:49Z,IP Address,151.228.161.246,100,155,TRUE,2020-11-18T05:05:49Z,R_3fCqQko0KQrT4Wz,NA,NA,NA,NA,54.98809814453125,-1.6194000244140625,anonymous,EN,sentence_screen,canvas.Screen,3_23_1,w,keypress(w),response,57.9600000000064,101539,101541.04,101558.04,101616,101619,2020-11-18T12:05:00Z,101641.38,4,1,exp,77,sensible,concrete,no_transfer,NA,Esmeralda watched football with you.,s,s,FALSE,NA,NA,NA,NA,NA,NA,NA,NA,NA,NA,NA,NA,NA,NA,NA,NA,NA,Yes
2020-11-18T05:03:14Z,2020-11-18T05:05:49Z,IP Address,151.228.161.246,100,155,TRUE,2020-11-18T05:05:49Z,R_3fCqQko0KQrT4Wz,NA,NA,NA,NA,54.98809814453125,-1.6194000244140625,anonymous,EN,trial,flow.Sequence,3_23,NA,NA,completion,174.52000000000407,101410,101425.3,101441.48,101616,101619,2020-11-18T12:05:00Z,101641.38,4,1,exp,77,sensible,concrete,no_transfer,NA,Esmeralda watched football with you.,s,NA,NA,NA,NA,NA,NA,NA,NA,NA,NA,NA,NA,NA,NA,NA,NA,NA,NA,NA,Yes
2020-11-18T05:03:14Z,2020-11-18T05:05:49Z,IP Address,151.228.161.246,100,155,TRUE,2020-11-18T05:05:49Z,R_3fCqQko0KQrT4Wz,NA,NA,NA,NA,54.98809814453125,-1.6194000244140625,anonymous,EN,fixation_cross,canvas.Screen,3_24_0,end_fixation,keypress(Space),response,211.61999999999534,101619,101624.56,101641.38,101853,101855,2020-11-18T12:05:01Z,101891.8,4,1,exp,153,nonsense,transfer,NA,NA,Coriel ate the regards to you.,w,NA,NA,NA,NA,NA,NA,NA,NA,NA,NA,NA,NA,NA,NA,NA,NA,NA,NA,NA,Yes
2020-11-18T05:03:14Z,2020-11-18T05:05:49Z,IP Address,151.228.161.246,100,155,TRUE,2020-11-18T05:05:49Z,R_3fCqQko0KQrT4Wz,NA,NA,NA,NA,54.98809814453125,-1.6194000244140625,anonymous,EN,sentence_screen,canvas.Screen,3_24_1,s,keypress(s),response,164.1999999999971,101856,101856.96,101891.8,102056,102060,2020-11-18T12:05:01Z,102091.8,4,1,exp,153,nonsense,transfer,NA,NA,Coriel ate the regards to you.,w,w,FALSE,NA,NA,NA,NA,NA,NA,NA,NA,NA,NA,NA,NA,NA,NA,NA,NA,NA,Yes
2020-11-18T05:03:14Z,2020-11-18T05:05:49Z,IP Address,151.228.161.246,100,155,TRUE,2020-11-18T05:05:49Z,R_3fCqQko0KQrT4Wz,NA,NA,NA,NA,54.98809814453125,-1.6194000244140625,anonymous,EN,trial,flow.Sequence,3_24,NA,NA,completion,414.61999999999534,101619,101624.56,101641.38,102056,102061,2020-11-18T12:05:01Z,102091.8,4,1,exp,153,nonsense,transfer,NA,NA,Coriel ate the regards to you.,w,NA,NA,NA,NA,NA,NA,NA,NA,NA,NA,NA,NA,NA,NA,NA,NA,NA,NA,NA,Yes
2020-11-18T05:03:14Z,2020-11-18T05:05:49Z,IP Address,151.228.161.246,100,155,TRUE,2020-11-18T05:05:49Z,R_3fCqQko0KQrT4Wz,NA,NA,NA,NA,54.98809814453125,-1.6194000244140625,anonymous,EN,fixation_cross,canvas.Screen,3_25_0,end_fixation,keypress(Space),response,177.1999999999971,102061,102075.1,102091.8,102269,102272,2020-11-18T12:05:01Z,102291.1,4,1,exp,38,sensible,concrete,transfer,away,You drove the car to Gloria.,s,NA,NA,NA,NA,NA,NA,NA,NA,NA,NA,NA,NA,NA,NA,NA,NA,NA,NA,NA,Yes
2020-11-18T05:03:14Z,2020-11-18T05:05:49Z,IP Address,151.228.161.246,100,155,TRUE,2020-11-18T05:05:49Z,R_3fCqQko0KQrT4Wz,NA,NA,NA,NA,54.98809814453125,-1.6194000244140625,anonymous,EN,sentence_screen,canvas.Screen,3_25_1,s,keypress(s),response,120.89999999999418,102272,102274.32,102291.1,102412,102416,2020-11-18T12:05:01Z,102441.36,4,1,exp,38,sensible,concrete,transfer,away,You drove the car to Gloria.,s,s,TRUE,NA,NA,NA,NA,NA,NA,NA,NA,NA,NA,NA,NA,NA,NA,NA,NA,NA,Yes
2020-11-18T05:03:14Z,2020-11-18T05:05:49Z,IP Address,151.228.161.246,100,155,TRUE,2020-11-18T05:05:49Z,R_3fCqQko0KQrT4Wz,NA,NA,NA,NA,54.98809814453125,-1.6194000244140625,anonymous,EN,trial,flow.Sequence,3_25,NA,NA,completion,320.1999999999971,102061,102075.1,102091.8,102412,102416,2020-11-18T12:05:01Z,102441.36,4,1,exp,38,sensible,concrete,transfer,away,You drove the car to Gloria.,s,NA,NA,NA,NA,NA,NA,NA,NA,NA,NA,NA,NA,NA,NA,NA,NA,NA,NA,NA,Yes
2020-11-18T05:03:14Z,2020-11-18T05:05:49Z,IP Address,151.228.161.246,100,155,TRUE,2020-11-18T05:05:49Z,R_3fCqQko0KQrT4Wz,NA,NA,NA,NA,54.98809814453125,-1.6194000244140625,anonymous,EN,fixation_cross,canvas.Screen,3_26_0,end_fixation,keypress(Space),response,74.63999999999942,102416,102425.3,102441.36,102516,102519,2020-11-18T12:05:01Z,102541.8,4,1,exp,163,nonsense,transfer,NA,NA,You hanged honesty with Jennifer.,w,NA,NA,NA,NA,NA,NA,NA,NA,NA,NA,NA,NA,NA,NA,NA,NA,NA,NA,NA,Yes
2020-11-18T05:03:14Z,2020-11-18T05:05:49Z,IP Address,151.228.161.246,100,155,TRUE,2020-11-18T05:05:49Z,R_3fCqQko0KQrT4Wz,NA,NA,NA,NA,54.98809814453125,-1.6194000244140625,anonymous,EN,sentence_screen,canvas.Screen,3_26_1,s,keypress(s),response,110.19999999999709,102519,102524.6,102541.8,102652,102656,2020-11-18T12:05:01Z,102674.48,4,1,exp,163,nonsense,transfer,NA,NA,You hanged honesty with Jennifer.,w,w,FALSE,NA,NA,NA,NA,NA,NA,NA,NA,NA,NA,NA,NA,NA,NA,NA,NA,NA,Yes
2020-11-18T05:03:14Z,2020-11-18T05:05:49Z,IP Address,151.228.161.246,100,155,TRUE,2020-11-18T05:05:49Z,R_3fCqQko0KQrT4Wz,NA,NA,NA,NA,54.98809814453125,-1.6194000244140625,anonymous,EN,trial,flow.Sequence,3_26,NA,NA,completion,210.63999999999942,102416,102425.3,102441.36,102652,102656,2020-11-18T12:05:01Z,102674.48,4,1,exp,163,nonsense,transfer,NA,NA,You hanged honesty with Jennifer.,w,NA,NA,NA,NA,NA,NA,NA,NA,NA,NA,NA,NA,NA,NA,NA,NA,NA,NA,NA,Yes
2020-11-18T05:03:14Z,2020-11-18T05:05:49Z,IP Address,151.228.161.246,100,155,TRUE,2020-11-18T05:05:49Z,R_3fCqQko0KQrT4Wz,NA,NA,NA,NA,54.98809814453125,-1.6194000244140625,anonymous,EN,fixation_cross,canvas.Screen,3_27_0,end_fixation,keypress(Space),response,157.52000000000407,102656,102657.86,102674.48,102832,102835,2020-11-18T12:05:02Z,102858.32,4,1,exp,165,nonsense,transfer,NA,NA,Scott parted you the trailer.,w,NA,NA,NA,NA,NA,NA,NA,NA,NA,NA,NA,NA,NA,NA,NA,NA,NA,NA,NA,Yes
2020-11-18T05:03:14Z,2020-11-18T05:05:49Z,IP Address,151.228.161.246,100,155,TRUE,2020-11-18T05:05:49Z,R_3fCqQko0KQrT4Wz,NA,NA,NA,NA,54.98809814453125,-1.6194000244140625,anonymous,EN,sentence_screen,canvas.Screen,3_27_1,w,keypress(w),response,161.67999999999302,102835,102841.96,102858.32,103020,103024,2020-11-18T12:05:02Z,103041.8,4,1,exp,165,nonsense,transfer,NA,NA,Scott parted you the trailer.,w,w,TRUE,NA,NA,NA,NA,NA,NA,NA,NA,NA,NA,NA,NA,NA,NA,NA,NA,NA,Yes
2020-11-18T05:03:14Z,2020-11-18T05:05:49Z,IP Address,151.228.161.246,100,155,TRUE,2020-11-18T05:05:49Z,R_3fCqQko0KQrT4Wz,NA,NA,NA,NA,54.98809814453125,-1.6194000244140625,anonymous,EN,trial,flow.Sequence,3_27,NA,NA,completion,345.5200000000041,102656,102657.86,102674.48,103020,103024,2020-11-18T12:05:02Z,103041.8,4,1,exp,165,nonsense,transfer,NA,NA,Scott parted you the trailer.,w,NA,NA,NA,NA,NA,NA,NA,NA,NA,NA,NA,NA,NA,NA,NA,NA,NA,NA,NA,Yes
2020-11-18T05:03:14Z,2020-11-18T05:05:49Z,IP Address,151.228.161.246,100,155,TRUE,2020-11-18T05:05:49Z,R_3fCqQko0KQrT4Wz,NA,NA,NA,NA,54.98809814453125,-1.6194000244140625,anonymous,EN,fixation_cross,canvas.Screen,3_28_0,end_fixation,keypress(Space),response,130.1999999999971,103024,103025.04,103041.8,103172,103176,2020-11-18T12:05:02Z,103207.86,4,1,exp,80,sensible,concrete,no_transfer,NA,Silvia wrote the note with you.,s,NA,NA,NA,NA,NA,NA,NA,NA,NA,NA,NA,NA,NA,NA,NA,NA,NA,NA,NA,Yes
2020-11-18T05:03:14Z,2020-11-18T05:05:49Z,IP Address,151.228.161.246,100,155,TRUE,2020-11-18T05:05:49Z,R_3fCqQko0KQrT4Wz,NA,NA,NA,NA,54.98809814453125,-1.6194000244140625,anonymous,EN,sentence_screen,canvas.Screen,3_28_1,w,keypress(w),response,124.13999999999942,103176,103191.7,103207.86,103332,103336,2020-11-18T12:05:02Z,103358.66,4,1,exp,80,sensible,concrete,no_transfer,NA,Silvia wrote the note with you.,s,s,FALSE,NA,NA,NA,NA,NA,NA,NA,NA,NA,NA,NA,NA,NA,NA,NA,NA,NA,Yes
2020-11-18T05:03:14Z,2020-11-18T05:05:49Z,IP Address,151.228.161.246,100,155,TRUE,2020-11-18T05:05:49Z,R_3fCqQko0KQrT4Wz,NA,NA,NA,NA,54.98809814453125,-1.6194000244140625,anonymous,EN,trial,flow.Sequence,3_28,NA,NA,completion,290.1999999999971,103024,103025.04,103041.8,103332,103337,2020-11-18T12:05:02Z,103358.66,4,1,exp,80,sensible,concrete,no_transfer,NA,Silvia wrote the note with you.,s,NA,NA,NA,NA,NA,NA,NA,NA,NA,NA,NA,NA,NA,NA,NA,NA,NA,NA,NA,Yes
2020-11-18T05:03:14Z,2020-11-18T05:05:49Z,IP Address,151.228.161.246,100,155,TRUE,2020-11-18T05:05:49Z,R_3fCqQko0KQrT4Wz,NA,NA,NA,NA,54.98809814453125,-1.6194000244140625,anonymous,EN,fixation_cross,canvas.Screen,3_29_0,end_fixation,keypress(Space),response,122.33999999999651,103337,103341.8,103358.66,103481,103485,2020-11-18T12:05:02Z,103507.98,4,1,exp,37,sensible,concrete,transfer,towards,Leah handed you the puppy.,s,NA,NA,NA,NA,NA,NA,NA,NA,NA,NA,NA,NA,NA,NA,NA,NA,NA,NA,NA,Yes
2020-11-18T05:03:14Z,2020-11-18T05:05:49Z,IP Address,151.228.161.246,100,155,TRUE,2020-11-18T05:05:49Z,R_3fCqQko0KQrT4Wz,NA,NA,NA,NA,54.98809814453125,-1.6194000244140625,anonymous,EN,sentence_screen,canvas.Screen,3_29_1,w,keypress(w),response,76.02000000000407,103485,103491.82,103507.98,103584,103587,2020-11-18T12:05:02Z,103607.72,4,1,exp,37,sensible,concrete,transfer,towards,Leah handed you the puppy.,s,s,FALSE,NA,NA,NA,NA,NA,NA,NA,NA,NA,NA,NA,NA,NA,NA,NA,NA,NA,Yes
2020-11-18T05:03:14Z,2020-11-18T05:05:49Z,IP Address,151.228.161.246,100,155,TRUE,2020-11-18T05:05:49Z,R_3fCqQko0KQrT4Wz,NA,NA,NA,NA,54.98809814453125,-1.6194000244140625,anonymous,EN,trial,flow.Sequence,3_29,NA,NA,completion,225.3399999999965,103337,103341.8,103358.66,103584,103588,2020-11-18T12:05:02Z,103607.72,4,1,exp,37,sensible,concrete,transfer,towards,Leah handed you the puppy.,s,NA,NA,NA,NA,NA,NA,NA,NA,NA,NA,NA,NA,NA,NA,NA,NA,NA,NA,NA,Yes
2020-11-18T05:03:14Z,2020-11-18T05:05:49Z,IP Address,151.228.161.246,100,155,TRUE,2020-11-18T05:05:49Z,R_3fCqQko0KQrT4Wz,NA,NA,NA,NA,54.98809814453125,-1.6194000244140625,anonymous,EN,fixation_cross,canvas.Screen,3_30_0,end_fixation,keypress(Space),response,156.27999999999884,103588,103591.58,103607.72,103764,103768,2020-11-18T12:05:03Z,103791.32,4,1,exp,167,nonsense,transfer,NA,NA,You danced the land to Vanna.,w,NA,NA,NA,NA,NA,NA,NA,NA,NA,NA,NA,NA,NA,NA,NA,NA,NA,NA,NA,Yes
2020-11-18T05:03:14Z,2020-11-18T05:05:49Z,IP Address,151.228.161.246,100,155,TRUE,2020-11-18T05:05:49Z,R_3fCqQko0KQrT4Wz,NA,NA,NA,NA,54.98809814453125,-1.6194000244140625,anonymous,EN,sentence_screen,canvas.Screen,3_30_1,w,keypress(w),response,60.679999999993015,103768,103774.66,103791.32,103852,103856,2020-11-18T12:05:03Z,103875.1,4,1,exp,167,nonsense,transfer,NA,NA,You danced the land to Vanna.,w,w,TRUE,NA,NA,NA,NA,NA,NA,NA,NA,NA,NA,NA,NA,NA,NA,NA,NA,NA,Yes
2020-11-18T05:03:14Z,2020-11-18T05:05:49Z,IP Address,151.228.161.246,100,155,TRUE,2020-11-18T05:05:49Z,R_3fCqQko0KQrT4Wz,NA,NA,NA,NA,54.98809814453125,-1.6194000244140625,anonymous,EN,trial,flow.Sequence,3_30,NA,NA,completion,244.27999999999884,103588,103591.58,103607.72,103852,103856,2020-11-18T12:05:03Z,103875.1,4,1,exp,167,nonsense,transfer,NA,NA,You danced the land to Vanna.,w,NA,NA,NA,NA,NA,NA,NA,NA,NA,NA,NA,NA,NA,NA,NA,NA,NA,NA,NA,Yes
2020-11-18T05:03:14Z,2020-11-18T05:05:49Z,IP Address,151.228.161.246,100,155,TRUE,2020-11-18T05:05:49Z,R_3fCqQko0KQrT4Wz,NA,NA,NA,NA,54.98809814453125,-1.6194000244140625,anonymous,EN,fixation_cross,canvas.Screen,3_31_0,end_fixation,keypress(Space),response,108.89999999999418,103856,103857.6,103875.1,103984,103988,2020-11-18T12:05:03Z,104007.66,4,1,exp,170,nonsense,transfer,NA,NA,Uqbah parked the string to you.,w,NA,NA,NA,NA,NA,NA,NA,NA,NA,NA,NA,NA,NA,NA,NA,NA,NA,NA,NA,Yes
2020-11-18T05:03:14Z,2020-11-18T05:05:49Z,IP Address,151.228.161.246,100,155,TRUE,2020-11-18T05:05:49Z,R_3fCqQko0KQrT4Wz,NA,NA,NA,NA,54.98809814453125,-1.6194000244140625,anonymous,EN,sentence_screen,canvas.Screen,3_31_1,s,keypress(s),response,100.33999999999651,103988,103991.72,104007.66,104108,104111,2020-11-18T12:05:03Z,104141.02,4,1,exp,170,nonsense,transfer,NA,NA,Uqbah parked the string to you.,w,w,FALSE,NA,NA,NA,NA,NA,NA,NA,NA,NA,NA,NA,NA,NA,NA,NA,NA,NA,Yes
2020-11-18T05:03:14Z,2020-11-18T05:05:49Z,IP Address,151.228.161.246,100,155,TRUE,2020-11-18T05:05:49Z,R_3fCqQko0KQrT4Wz,NA,NA,NA,NA,54.98809814453125,-1.6194000244140625,anonymous,EN,trial,flow.Sequence,3_31,NA,NA,completion,232.89999999999418,103856,103857.6,103875.1,104108,104111,2020-11-18T12:05:03Z,104141.02,4,1,exp,170,nonsense,transfer,NA,NA,Uqbah parked the string to you.,w,NA,NA,NA,NA,NA,NA,NA,NA,NA,NA,NA,NA,NA,NA,NA,NA,NA,NA,NA,Yes
2020-11-18T05:03:14Z,2020-11-18T05:05:49Z,IP Address,151.228.161.246,100,155,TRUE,2020-11-18T05:05:49Z,R_3fCqQko0KQrT4Wz,NA,NA,NA,NA,54.98809814453125,-1.6194000244140625,anonymous,EN,fixation_cross,canvas.Screen,3_32_0,end_fixation,keypress(Space),response,50.979999999995925,104112,104124.98,104141.02,104192,104196,2020-11-18T12:05:03Z,104225.2,4,1,exp,197,nonsense,transfer,NA,NA,You tore Jesse the shoe.,w,NA,NA,NA,NA,NA,NA,NA,NA,NA,NA,NA,NA,NA,NA,NA,NA,NA,NA,NA,Yes
2020-11-18T05:03:14Z,2020-11-18T05:05:49Z,IP Address,151.228.161.246,100,155,TRUE,2020-11-18T05:05:49Z,R_3fCqQko0KQrT4Wz,NA,NA,NA,NA,54.98809814453125,-1.6194000244140625,anonymous,EN,sentence_screen,canvas.Screen,3_32_1,s,keypress(s),response,94.80000000000291,104196,104207.66,104225.2,104320,104323,2020-11-18T12:05:03Z,104341.22,4,1,exp,197,nonsense,transfer,NA,NA,You tore Jesse the shoe.,w,w,FALSE,NA,NA,NA,NA,NA,NA,NA,NA,NA,NA,NA,NA,NA,NA,NA,NA,NA,Yes
2020-11-18T05:03:14Z,2020-11-18T05:05:49Z,IP Address,151.228.161.246,100,155,TRUE,2020-11-18T05:05:49Z,R_3fCqQko0KQrT4Wz,NA,NA,NA,NA,54.98809814453125,-1.6194000244140625,anonymous,EN,trial,flow.Sequence,3_32,NA,NA,completion,178.97999999999593,104112,104124.98,104141.02,104320,104323,2020-11-18T12:05:03Z,104341.22,4,1,exp,197,nonsense,transfer,NA,NA,You tore Jesse the shoe.,w,NA,NA,NA,NA,NA,NA,NA,NA,NA,NA,NA,NA,NA,NA,NA,NA,NA,NA,NA,Yes
2020-11-18T05:03:14Z,2020-11-18T05:05:49Z,IP Address,151.228.161.246,100,155,TRUE,2020-11-18T05:05:49Z,R_3fCqQko0KQrT4Wz,NA,NA,NA,NA,54.98809814453125,-1.6194000244140625,anonymous,EN,fixation_cross,canvas.Screen,3_33_0,end_fixation,keypress(Space),response,30.779999999998836,104323,104325.1,104341.22,104372,104376,2020-11-18T12:05:03Z,104407.62,4,1,exp,152,nonsense,transfer,NA,NA,Mariah scratched the hat to you.,w,NA,NA,NA,NA,NA,NA,NA,NA,NA,NA,NA,NA,NA,NA,NA,NA,NA,NA,NA,Yes
2020-11-18T05:03:14Z,2020-11-18T05:05:49Z,IP Address,151.228.161.246,100,155,TRUE,2020-11-18T05:05:49Z,R_3fCqQko0KQrT4Wz,NA,NA,NA,NA,54.98809814453125,-1.6194000244140625,anonymous,EN,sentence_screen,canvas.Screen,3_33_1,s,keypress(s),response,76.38000000000466,104377,104391.66,104407.62,104484,104487,2020-11-18T12:05:03Z,104507.96,4,1,exp,152,nonsense,transfer,NA,NA,Mariah scratched the hat to you.,w,w,FALSE,NA,NA,NA,NA,NA,NA,NA,NA,NA,NA,NA,NA,NA,NA,NA,NA,NA,Yes
2020-11-18T05:03:14Z,2020-11-18T05:05:49Z,IP Address,151.228.161.246,100,155,TRUE,2020-11-18T05:05:49Z,R_3fCqQko0KQrT4Wz,NA,NA,NA,NA,54.98809814453125,-1.6194000244140625,anonymous,EN,trial,flow.Sequence,3_33,NA,NA,completion,142.77999999999884,104323,104325.1,104341.22,104484,104487,2020-11-18T12:05:03Z,104507.96,4,1,exp,152,nonsense,transfer,NA,NA,Mariah scratched the hat to you.,w,NA,NA,NA,NA,NA,NA,NA,NA,NA,NA,NA,NA,NA,NA,NA,NA,NA,NA,NA,Yes
2020-11-18T05:03:14Z,2020-11-18T05:05:49Z,IP Address,151.228.161.246,100,155,TRUE,2020-11-18T05:05:49Z,R_3fCqQko0KQrT4Wz,NA,NA,NA,NA,54.98809814453125,-1.6194000244140625,anonymous,EN,fixation_cross,canvas.Screen,3_34_0,end_fixation,keypress(Space),response,24.039999999993597,104487,104491.72,104507.96,104532,104536,2020-11-18T12:05:03Z,104558.54,4,1,exp,194,nonsense,transfer,NA,NA,Carolina smelled the pencil to you.,w,NA,NA,NA,NA,NA,NA,NA,NA,NA,NA,NA,NA,NA,NA,NA,NA,NA,NA,NA,Yes
2020-11-18T05:03:14Z,2020-11-18T05:05:49Z,IP Address,151.228.161.246,100,155,TRUE,2020-11-18T05:05:49Z,R_3fCqQko0KQrT4Wz,NA,NA,NA,NA,54.98809814453125,-1.6194000244140625,anonymous,EN,sentence_screen,canvas.Screen,3_34_1,s,keypress(s),response,89.4600000000064,104536,104541.26,104558.54,104648,104652,2020-11-18T12:05:03Z,104674.38,4,1,exp,194,nonsense,transfer,NA,NA,Carolina smelled the pencil to you.,w,w,FALSE,NA,NA,NA,NA,NA,NA,NA,NA,NA,NA,NA,NA,NA,NA,NA,NA,NA,Yes
2020-11-18T05:03:14Z,2020-11-18T05:05:49Z,IP Address,151.228.161.246,100,155,TRUE,2020-11-18T05:05:49Z,R_3fCqQko0KQrT4Wz,NA,NA,NA,NA,54.98809814453125,-1.6194000244140625,anonymous,EN,trial,flow.Sequence,3_34,NA,NA,completion,140.0399999999936,104487,104491.72,104507.96,104648,104652,2020-11-18T12:05:03Z,104674.38,4,1,exp,194,nonsense,transfer,NA,NA,Carolina smelled the pencil to you.,w,NA,NA,NA,NA,NA,NA,NA,NA,NA,NA,NA,NA,NA,NA,NA,NA,NA,NA,NA,Yes
2020-11-18T05:03:14Z,2020-11-18T05:05:49Z,IP Address,151.228.161.246,100,155,TRUE,2020-11-18T05:05:49Z,R_3fCqQko0KQrT4Wz,NA,NA,NA,NA,54.98809814453125,-1.6194000244140625,anonymous,EN,fixation_cross,canvas.Screen,3_35_0,end_fixation,keypress(Space),response,9.619999999995343,104652,104658.5,104674.38,104684,104688,2020-11-18T12:05:04Z,104708.5,4,1,exp,183,nonsense,transfer,NA,NA,Marguerite stapled the song with you.,w,NA,NA,NA,NA,NA,NA,NA,NA,NA,NA,NA,NA,NA,NA,NA,NA,NA,NA,NA,Yes
2020-11-18T05:03:14Z,2020-11-18T05:05:49Z,IP Address,151.228.161.246,100,155,TRUE,2020-11-18T05:05:49Z,R_3fCqQko0KQrT4Wz,NA,NA,NA,NA,54.98809814453125,-1.6194000244140625,anonymous,EN,sentence_screen,canvas.Screen,3_35_1,s,keypress(s),response,91.5,104688,104691.76,104708.5,104800,104803,2020-11-18T12:05:04Z,104824.18,4,1,exp,183,nonsense,transfer,NA,NA,Marguerite stapled the song with you.,w,w,FALSE,NA,NA,NA,NA,NA,NA,NA,NA,NA,NA,NA,NA,NA,NA,NA,NA,NA,Yes
2020-11-18T05:03:14Z,2020-11-18T05:05:49Z,IP Address,151.228.161.246,100,155,TRUE,2020-11-18T05:05:49Z,R_3fCqQko0KQrT4Wz,NA,NA,NA,NA,54.98809814453125,-1.6194000244140625,anonymous,EN,trial,flow.Sequence,3_35,NA,NA,completion,125.61999999999534,104652,104658.5,104674.38,104800,104804,2020-11-18T12:05:04Z,104824.18,4,1,exp,183,nonsense,transfer,NA,NA,Marguerite stapled the song with you.,w,NA,NA,NA,NA,NA,NA,NA,NA,NA,NA,NA,NA,NA,NA,NA,NA,NA,NA,NA,Yes
2020-11-18T05:03:14Z,2020-11-18T05:05:49Z,IP Address,151.228.161.246,100,155,TRUE,2020-11-18T05:05:49Z,R_3fCqQko0KQrT4Wz,NA,NA,NA,NA,54.98809814453125,-1.6194000244140625,anonymous,EN,fixation_cross,canvas.Screen,3_36_0,end_fixation,keypress(Space),response,11.820000000006985,104804,104807.6,104824.18,104836,104840,2020-11-18T12:05:04Z,104858.08,4,1,exp,199,nonsense,transfer,NA,NA,Ariana recited the mouse for you.,w,NA,NA,NA,NA,NA,NA,NA,NA,NA,NA,NA,NA,NA,NA,NA,NA,NA,NA,NA,Yes
2020-11-18T05:03:14Z,2020-11-18T05:05:49Z,IP Address,151.228.161.246,100,155,TRUE,2020-11-18T05:05:49Z,R_3fCqQko0KQrT4Wz,NA,NA,NA,NA,54.98809814453125,-1.6194000244140625,anonymous,EN,sentence_screen,canvas.Screen,3_36_1,s,keypress(s),response,93.91999999999825,104840,104841.74,104858.08,104952,104955,2020-11-18T12:05:04Z,104975.06,4,1,exp,199,nonsense,transfer,NA,NA,Ariana recited the mouse for you.,w,w,FALSE,NA,NA,NA,NA,NA,NA,NA,NA,NA,NA,NA,NA,NA,NA,NA,NA,NA,Yes
2020-11-18T05:03:14Z,2020-11-18T05:05:49Z,IP Address,151.228.161.246,100,155,TRUE,2020-11-18T05:05:49Z,R_3fCqQko0KQrT4Wz,NA,NA,NA,NA,54.98809814453125,-1.6194000244140625,anonymous,EN,trial,flow.Sequence,3_36,NA,NA,completion,127.82000000000698,104804,104807.6,104824.18,104952,104955,2020-11-18T12:05:04Z,104975.06,4,1,exp,199,nonsense,transfer,NA,NA,Ariana recited the mouse for you.,w,NA,NA,NA,NA,NA,NA,NA,NA,NA,NA,NA,NA,NA,NA,NA,NA,NA,NA,NA,Yes
2020-11-18T05:03:14Z,2020-11-18T05:05:49Z,IP Address,151.228.161.246,100,155,TRUE,2020-11-18T05:05:49Z,R_3fCqQko0KQrT4Wz,NA,NA,NA,NA,54.98809814453125,-1.6194000244140625,anonymous,EN,fixation_cross,canvas.Screen,3_37_0,end_fixation,keypress(Space),response,16.94000000000233,104955,104958.38,104975.06,104992,104996,2020-11-18T12:05:04Z,105024.74,4,1,exp,68,sensible,concrete,no_transfer,NA,You cleaned the medal for Dominic.,s,NA,NA,NA,NA,NA,NA,NA,NA,NA,NA,NA,NA,NA,NA,NA,NA,NA,NA,NA,Yes
2020-11-18T05:03:14Z,2020-11-18T05:05:49Z,IP Address,151.228.161.246,100,155,TRUE,2020-11-18T05:05:49Z,R_3fCqQko0KQrT4Wz,NA,NA,NA,NA,54.98809814453125,-1.6194000244140625,anonymous,EN,sentence_screen,canvas.Screen,3_37_1,s,keypress(s),response,88.25999999999476,104996,105007.58,105024.74,105113,105116,2020-11-18T12:05:04Z,105140.94,4,1,exp,68,sensible,concrete,no_transfer,NA,You cleaned the medal for Dominic.,s,s,TRUE,NA,NA,NA,NA,NA,NA,NA,NA,NA,NA,NA,NA,NA,NA,NA,NA,NA,Yes
2020-11-18T05:03:14Z,2020-11-18T05:05:49Z,IP Address,151.228.161.246,100,155,TRUE,2020-11-18T05:05:49Z,R_3fCqQko0KQrT4Wz,NA,NA,NA,NA,54.98809814453125,-1.6194000244140625,anonymous,EN,trial,flow.Sequence,3_37,NA,NA,completion,137.94000000000233,104955,104958.38,104975.06,105113,105116,2020-11-18T12:05:04Z,105140.94,4,1,exp,68,sensible,concrete,no_transfer,NA,You cleaned the medal for Dominic.,s,NA,NA,NA,NA,NA,NA,NA,NA,NA,NA,NA,NA,NA,NA,NA,NA,NA,NA,NA,Yes
2020-11-18T05:03:14Z,2020-11-18T05:05:49Z,IP Address,151.228.161.246,100,155,TRUE,2020-11-18T05:05:49Z,R_3fCqQko0KQrT4Wz,NA,NA,NA,NA,54.98809814453125,-1.6194000244140625,anonymous,EN,fixation_cross,canvas.Screen,3_38_0,end_fixation,keypress(Space),response,35.05999999999767,105116,105124.98,105140.94,105176,105179,2020-11-18T12:05:04Z,105207.64,4,1,exp,34,sensible,concrete,transfer,away,You kicked the football to Timothy.,s,NA,NA,NA,NA,NA,NA,NA,NA,NA,NA,NA,NA,NA,NA,NA,NA,NA,NA,NA,Yes
2020-11-18T05:03:14Z,2020-11-18T05:05:49Z,IP Address,151.228.161.246,100,155,TRUE,2020-11-18T05:05:49Z,R_3fCqQko0KQrT4Wz,NA,NA,NA,NA,54.98809814453125,-1.6194000244140625,anonymous,EN,sentence_screen,canvas.Screen,3_38_1,s,keypress(s),response,36.36000000000058,105179,105191.64,105207.64,105244,105247,2020-11-18T12:05:04Z,105274.38,4,1,exp,34,sensible,concrete,transfer,away,You kicked the football to Timothy.,s,s,TRUE,NA,NA,NA,NA,NA,NA,NA,NA,NA,NA,NA,NA,NA,NA,NA,NA,NA,Yes
2020-11-18T05:03:14Z,2020-11-18T05:05:49Z,IP Address,151.228.161.246,100,155,TRUE,2020-11-18T05:05:49Z,R_3fCqQko0KQrT4Wz,NA,NA,NA,NA,54.98809814453125,-1.6194000244140625,anonymous,EN,trial,flow.Sequence,3_38,NA,NA,completion,103.05999999999767,105116,105124.98,105140.94,105244,105248,2020-11-18T12:05:04Z,105274.38,4,1,exp,34,sensible,concrete,transfer,away,You kicked the football to Timothy.,s,NA,NA,NA,NA,NA,NA,NA,NA,NA,NA,NA,NA,NA,NA,NA,NA,NA,NA,NA,Yes
2020-11-18T05:03:14Z,2020-11-18T05:05:49Z,IP Address,151.228.161.246,100,155,TRUE,2020-11-18T05:05:49Z,R_3fCqQko0KQrT4Wz,NA,NA,NA,NA,54.98809814453125,-1.6194000244140625,anonymous,EN,fixation_cross,canvas.Screen,3_39_0,end_fixation,keypress(Space),response,69.61999999999534,105248,105258.4,105274.38,105344,105347,2020-11-18T12:05:04Z,105374.62,4,1,exp,198,nonsense,transfer,NA,NA,Katie sniffed the praise from you.,w,NA,NA,NA,NA,NA,NA,NA,NA,NA,NA,NA,NA,NA,NA,NA,NA,NA,NA,NA,Yes
2020-11-18T05:03:14Z,2020-11-18T05:05:49Z,IP Address,151.228.161.246,100,155,TRUE,2020-11-18T05:05:49Z,R_3fCqQko0KQrT4Wz,NA,NA,NA,NA,54.98809814453125,-1.6194000244140625,anonymous,EN,sentence_screen,canvas.Screen,3_39_1,w,keypress(w),response,57.38000000000466,105347,105357.72,105374.62,105432,105435,2020-11-18T12:05:04Z,105458.26,4,1,exp,198,nonsense,transfer,NA,NA,Katie sniffed the praise from you.,w,w,TRUE,NA,NA,NA,NA,NA,NA,NA,NA,NA,NA,NA,NA,NA,NA,NA,NA,NA,Yes
2020-11-18T05:03:14Z,2020-11-18T05:05:49Z,IP Address,151.228.161.246,100,155,TRUE,2020-11-18T05:05:49Z,R_3fCqQko0KQrT4Wz,NA,NA,NA,NA,54.98809814453125,-1.6194000244140625,anonymous,EN,trial,flow.Sequence,3_39,NA,NA,completion,157.61999999999534,105248,105258.4,105274.38,105432,105435,2020-11-18T12:05:04Z,105458.26,4,1,exp,198,nonsense,transfer,NA,NA,Katie sniffed the praise from you.,w,NA,NA,NA,NA,NA,NA,NA,NA,NA,NA,NA,NA,NA,NA,NA,NA,NA,NA,NA,Yes
2020-11-18T05:03:14Z,2020-11-18T05:05:49Z,IP Address,151.228.161.246,100,155,TRUE,2020-11-18T05:05:49Z,R_3fCqQko0KQrT4Wz,NA,NA,NA,NA,54.98809814453125,-1.6194000244140625,anonymous,EN,fixation_cross,canvas.Screen,3_40_0,end_fixation,keypress(Space),response,37.74000000000524,105436,105441.78,105458.26,105496,105499,2020-11-18T12:05:04Z,105524.9,4,1,exp,171,nonsense,transfer,NA,NA,You smelled the song with Joseph.,w,NA,NA,NA,NA,NA,NA,NA,NA,NA,NA,NA,NA,NA,NA,NA,NA,NA,NA,NA,Yes
2020-11-18T05:03:14Z,2020-11-18T05:05:49Z,IP Address,151.228.161.246,100,155,TRUE,2020-11-18T05:05:49Z,R_3fCqQko0KQrT4Wz,NA,NA,NA,NA,54.98809814453125,-1.6194000244140625,anonymous,EN,sentence_screen,canvas.Screen,3_40_1,w,keypress(w),response,111.10000000000582,105499,105508.04,105524.9,105636,105640,2020-11-18T12:05:04Z,105658.42,4,1,exp,171,nonsense,transfer,NA,NA,You smelled the song with Joseph.,w,w,TRUE,NA,NA,NA,NA,NA,NA,NA,NA,NA,NA,NA,NA,NA,NA,NA,NA,NA,Yes
2020-11-18T05:03:14Z,2020-11-18T05:05:49Z,IP Address,151.228.161.246,100,155,TRUE,2020-11-18T05:05:49Z,R_3fCqQko0KQrT4Wz,NA,NA,NA,NA,54.98809814453125,-1.6194000244140625,anonymous,EN,trial,flow.Sequence,3_40,NA,NA,completion,177.74000000000524,105435,105441.78,105458.26,105636,105640,2020-11-18T12:05:04Z,105658.42,4,1,exp,171,nonsense,transfer,NA,NA,You smelled the song with Joseph.,w,NA,NA,NA,NA,NA,NA,NA,NA,NA,NA,NA,NA,NA,NA,NA,NA,NA,NA,NA,Yes
2020-11-18T05:03:14Z,2020-11-18T05:05:49Z,IP Address,151.228.161.246,100,155,TRUE,2020-11-18T05:05:49Z,R_3fCqQko0KQrT4Wz,NA,NA,NA,NA,54.98809814453125,-1.6194000244140625,anonymous,EN,fixation_cross,canvas.Screen,3_41_0,end_fixation,keypress(Space),response,9.580000000001746,105640,105641.84,105658.42,105668,105671,2020-11-18T12:05:05Z,105691.72,4,1,exp,65,sensible,concrete,no_transfer,NA,You bought the soccer ball with Deja.,s,NA,NA,NA,NA,NA,NA,NA,NA,NA,NA,NA,NA,NA,NA,NA,NA,NA,NA,NA,Yes
2020-11-18T05:03:14Z,2020-11-18T05:05:49Z,IP Address,151.228.161.246,100,155,TRUE,2020-11-18T05:05:49Z,R_3fCqQko0KQrT4Wz,NA,NA,NA,NA,54.98809814453125,-1.6194000244140625,anonymous,EN,sentence_screen,canvas.Screen,3_41_1,w,keypress(w),response,284.27999999999884,105671,105674.3,105691.72,105976,105980,2020-11-18T12:05:05Z,106007.72,4,1,exp,65,sensible,concrete,no_transfer,NA,You bought the soccer ball with Deja.,s,s,FALSE,NA,NA,NA,NA,NA,NA,NA,NA,NA,NA,NA,NA,NA,NA,NA,NA,NA,Yes
2020-11-18T05:03:14Z,2020-11-18T05:05:49Z,IP Address,151.228.161.246,100,155,TRUE,2020-11-18T05:05:49Z,R_3fCqQko0KQrT4Wz,NA,NA,NA,NA,54.98809814453125,-1.6194000244140625,anonymous,EN,trial,flow.Sequence,3_41,NA,NA,completion,317.58000000000175,105640,105641.84,105658.42,105976,105980,2020-11-18T12:05:05Z,106007.72,4,1,exp,65,sensible,concrete,no_transfer,NA,You bought the soccer ball with Deja.,s,NA,NA,NA,NA,NA,NA,NA,NA,NA,NA,NA,NA,NA,NA,NA,NA,NA,NA,NA,Yes
2020-11-18T05:03:14Z,2020-11-18T05:05:49Z,IP Address,151.228.161.246,100,155,TRUE,2020-11-18T05:05:49Z,R_3fCqQko0KQrT4Wz,NA,NA,NA,NA,54.98809814453125,-1.6194000244140625,anonymous,EN,fixation_cross,canvas.Screen,3_42_0,end_fixation,keypress(Space),response,96.27999999999884,105980,105980.72,106007.72,106104,106108,2020-11-18T12:05:05Z,106124.6,4,1,exp,70,sensible,concrete,no_transfer,NA,You played cards with Erin.,s,NA,NA,NA,NA,NA,NA,NA,NA,NA,NA,NA,NA,NA,NA,NA,NA,NA,NA,NA,Yes
2020-11-18T05:03:14Z,2020-11-18T05:05:49Z,IP Address,151.228.161.246,100,155,TRUE,2020-11-18T05:05:49Z,R_3fCqQko0KQrT4Wz,NA,NA,NA,NA,54.98809814453125,-1.6194000244140625,anonymous,EN,sentence_screen,canvas.Screen,3_42_1,w,keypress(w),response,127.39999999999418,106108,106108.4,106124.6,106252,106256,2020-11-18T12:05:05Z,106274.3,4,1,exp,70,sensible,concrete,no_transfer,NA,You played cards with Erin.,s,s,FALSE,NA,NA,NA,NA,NA,NA,NA,NA,NA,NA,NA,NA,NA,NA,NA,NA,NA,Yes
2020-11-18T05:03:14Z,2020-11-18T05:05:49Z,IP Address,151.228.161.246,100,155,TRUE,2020-11-18T05:05:49Z,R_3fCqQko0KQrT4Wz,NA,NA,NA,NA,54.98809814453125,-1.6194000244140625,anonymous,EN,trial,flow.Sequence,3_42,NA,NA,completion,244.27999999999884,105980,105980.72,106007.72,106252,106256,2020-11-18T12:05:05Z,106274.3,4,1,exp,70,sensible,concrete,no_transfer,NA,You played cards with Erin.,s,NA,NA,NA,NA,NA,NA,NA,NA,NA,NA,NA,NA,NA,NA,NA,NA,NA,NA,NA,Yes
2020-11-18T05:03:14Z,2020-11-18T05:05:49Z,IP Address,151.228.161.246,100,155,TRUE,2020-11-18T05:05:49Z,R_3fCqQko0KQrT4Wz,NA,NA,NA,NA,54.98809814453125,-1.6194000244140625,anonymous,EN,fixation_cross,canvas.Screen,3_43_0,end_fixation,keypress(Space),response,105.69999999999709,106257,106257.8,106274.3,106380,106383,2020-11-18T12:05:05Z,106407.68,4,1,exp,141,nonsense,transfer,NA,NA,Son snored the frame with you.,w,NA,NA,NA,NA,NA,NA,NA,NA,NA,NA,NA,NA,NA,NA,NA,NA,NA,NA,NA,Yes
2020-11-18T05:03:14Z,2020-11-18T05:05:49Z,IP Address,151.228.161.246,100,155,TRUE,2020-11-18T05:05:49Z,R_3fCqQko0KQrT4Wz,NA,NA,NA,NA,54.98809814453125,-1.6194000244140625,anonymous,EN,sentence_screen,canvas.Screen,3_43_1,w,keypress(w),response,48.320000000006985,106383,106391.12,106407.68,106456,106460,2020-11-18T12:05:05Z,106491.26,4,1,exp,141,nonsense,transfer,NA,NA,Son snored the frame with you.,w,w,TRUE,NA,NA,NA,NA,NA,NA,NA,NA,NA,NA,NA,NA,NA,NA,NA,NA,NA,Yes
2020-11-18T05:03:14Z,2020-11-18T05:05:49Z,IP Address,151.228.161.246,100,155,TRUE,2020-11-18T05:05:49Z,R_3fCqQko0KQrT4Wz,NA,NA,NA,NA,54.98809814453125,-1.6194000244140625,anonymous,EN,trial,flow.Sequence,3_43,NA,NA,completion,181.6999999999971,106257,106257.8,106274.3,106456,106460,2020-11-18T12:05:05Z,106491.26,4,1,exp,141,nonsense,transfer,NA,NA,Son snored the frame with you.,w,NA,NA,NA,NA,NA,NA,NA,NA,NA,NA,NA,NA,NA,NA,NA,NA,NA,NA,NA,Yes
2020-11-18T05:03:14Z,2020-11-18T05:05:49Z,IP Address,151.228.161.246,100,155,TRUE,2020-11-18T05:05:49Z,R_3fCqQko0KQrT4Wz,NA,NA,NA,NA,54.98809814453125,-1.6194000244140625,anonymous,EN,fixation_cross,canvas.Screen,3_44_0,end_fixation,keypress(Space),response,92.74000000000524,106460,106475.14,106491.26,106584,106587,2020-11-18T12:05:05Z,106607.68,4,1,exp,64,sensible,concrete,no_transfer,NA,Kion washed the car with you.,s,NA,NA,NA,NA,NA,NA,NA,NA,NA,NA,NA,NA,NA,NA,NA,NA,NA,NA,NA,Yes
2020-11-18T05:03:14Z,2020-11-18T05:05:49Z,IP Address,151.228.161.246,100,155,TRUE,2020-11-18T05:05:49Z,R_3fCqQko0KQrT4Wz,NA,NA,NA,NA,54.98809814453125,-1.6194000244140625,anonymous,EN,sentence_screen,canvas.Screen,3_44_1,w,keypress(w),response,24.320000000006985,106588,106591.6,106607.68,106632,106636,2020-11-18T12:05:05Z,106658.24,4,1,exp,64,sensible,concrete,no_transfer,NA,Kion washed the car with you.,s,s,FALSE,NA,NA,NA,NA,NA,NA,NA,NA,NA,NA,NA,NA,NA,NA,NA,NA,NA,Yes
2020-11-18T05:03:14Z,2020-11-18T05:05:49Z,IP Address,151.228.161.246,100,155,TRUE,2020-11-18T05:05:49Z,R_3fCqQko0KQrT4Wz,NA,NA,NA,NA,54.98809814453125,-1.6194000244140625,anonymous,EN,trial,flow.Sequence,3_44,NA,NA,completion,140.74000000000524,106460,106475.14,106491.26,106632,106636,2020-11-18T12:05:05Z,106658.24,4,1,exp,64,sensible,concrete,no_transfer,NA,Kion washed the car with you.,s,NA,NA,NA,NA,NA,NA,NA,NA,NA,NA,NA,NA,NA,NA,NA,NA,NA,NA,NA,Yes
2020-11-18T05:03:14Z,2020-11-18T05:05:49Z,IP Address,151.228.161.246,100,155,TRUE,2020-11-18T05:05:49Z,R_3fCqQko0KQrT4Wz,NA,NA,NA,NA,54.98809814453125,-1.6194000244140625,anonymous,EN,fixation_cross,canvas.Screen,3_45_0,end_fixation,keypress(Space),response,169.75999999999476,106636,106641.82,106658.24,106828,106831,2020-11-18T12:05:06Z,106858.26,4,1,exp,195,nonsense,transfer,NA,NA,You blanketed Zakkary to the store.,w,NA,NA,NA,NA,NA,NA,NA,NA,NA,NA,NA,NA,NA,NA,NA,NA,NA,NA,NA,Yes
2020-11-18T05:03:14Z,2020-11-18T05:05:49Z,IP Address,151.228.161.246,100,155,TRUE,2020-11-18T05:05:49Z,R_3fCqQko0KQrT4Wz,NA,NA,NA,NA,54.98809814453125,-1.6194000244140625,anonymous,EN,sentence_screen,canvas.Screen,3_45_1,s,keypress(s),response,9.740000000005239,106832,106841.84,106858.26,106868,106871,2020-11-18T12:05:06Z,106891.8,4,1,exp,195,nonsense,transfer,NA,NA,You blanketed Zakkary to the store.,w,w,FALSE,NA,NA,NA,NA,NA,NA,NA,NA,NA,NA,NA,NA,NA,NA,NA,NA,NA,Yes
2020-11-18T05:03:14Z,2020-11-18T05:05:49Z,IP Address,151.228.161.246,100,155,TRUE,2020-11-18T05:05:49Z,R_3fCqQko0KQrT4Wz,NA,NA,NA,NA,54.98809814453125,-1.6194000244140625,anonymous,EN,trial,flow.Sequence,3_45,NA,NA,completion,209.75999999999476,106636,106641.82,106658.24,106868,106872,2020-11-18T12:05:06Z,106891.8,4,1,exp,195,nonsense,transfer,NA,NA,You blanketed Zakkary to the store.,w,NA,NA,NA,NA,NA,NA,NA,NA,NA,NA,NA,NA,NA,NA,NA,NA,NA,NA,NA,Yes
2020-11-18T05:03:14Z,2020-11-18T05:05:49Z,IP Address,151.228.161.246,100,155,TRUE,2020-11-18T05:05:49Z,R_3fCqQko0KQrT4Wz,NA,NA,NA,NA,54.98809814453125,-1.6194000244140625,anonymous,EN,fixation_cross,canvas.Screen,3_46_0,end_fixation,keypress(Space),response,104.19999999999709,106872,106874.4,106891.8,106996,106999,2020-11-18T12:05:06Z,107024.58,4,1,exp,193,nonsense,transfer,NA,NA,You fertilized Antonia advice.,w,NA,NA,NA,NA,NA,NA,NA,NA,NA,NA,NA,NA,NA,NA,NA,NA,NA,NA,NA,Yes
2020-11-18T05:03:14Z,2020-11-18T05:05:49Z,IP Address,151.228.161.246,100,155,TRUE,2020-11-18T05:05:49Z,R_3fCqQko0KQrT4Wz,NA,NA,NA,NA,54.98809814453125,-1.6194000244140625,anonymous,EN,sentence_screen,canvas.Screen,3_46_1,s,keypress(s),response,79.41999999999825,106999,107007.7,107024.58,107104,107107,2020-11-18T12:05:06Z,107124.94,4,1,exp,193,nonsense,transfer,NA,NA,You fertilized Antonia advice.,w,w,FALSE,NA,NA,NA,NA,NA,NA,NA,NA,NA,NA,NA,NA,NA,NA,NA,NA,NA,Yes
2020-11-18T05:03:14Z,2020-11-18T05:05:49Z,IP Address,151.228.161.246,100,155,TRUE,2020-11-18T05:05:49Z,R_3fCqQko0KQrT4Wz,NA,NA,NA,NA,54.98809814453125,-1.6194000244140625,anonymous,EN,trial,flow.Sequence,3_46,NA,NA,completion,212.1999999999971,106872,106874.4,106891.8,107104,107107,2020-11-18T12:05:06Z,107124.94,4,1,exp,193,nonsense,transfer,NA,NA,You fertilized Antonia advice.,w,NA,NA,NA,NA,NA,NA,NA,NA,NA,NA,NA,NA,NA,NA,NA,NA,NA,NA,NA,Yes
2020-11-18T05:03:14Z,2020-11-18T05:05:49Z,IP Address,151.228.161.246,100,155,TRUE,2020-11-18T05:05:49Z,R_3fCqQko0KQrT4Wz,NA,NA,NA,NA,54.98809814453125,-1.6194000244140625,anonymous,EN,fixation_cross,canvas.Screen,3_47_0,end_fixation,keypress(Space),response,79.05999999999767,107107,107108.42,107124.94,107204,107207,2020-11-18T12:05:06Z,107225.22,4,1,exp,74,sensible,concrete,no_transfer,NA,Patrick held the cafeteria tray with you.,s,NA,NA,NA,NA,NA,NA,NA,NA,NA,NA,NA,NA,NA,NA,NA,NA,NA,NA,NA,Yes
2020-11-18T05:03:14Z,2020-11-18T05:05:49Z,IP Address,151.228.161.246,100,155,TRUE,2020-11-18T05:05:49Z,R_3fCqQko0KQrT4Wz,NA,NA,NA,NA,54.98809814453125,-1.6194000244140625,anonymous,EN,sentence_screen,canvas.Screen,3_47_1,s,keypress(s),response,94.77999999999884,107207,107207.54,107225.22,107320,107323,2020-11-18T12:05:06Z,107340.94,4,1,exp,74,sensible,concrete,no_transfer,NA,Patrick held the cafeteria tray with you.,s,s,TRUE,NA,NA,NA,NA,NA,NA,NA,NA,NA,NA,NA,NA,NA,NA,NA,NA,NA,Yes
2020-11-18T05:03:14Z,2020-11-18T05:05:49Z,IP Address,151.228.161.246,100,155,TRUE,2020-11-18T05:05:49Z,R_3fCqQko0KQrT4Wz,NA,NA,NA,NA,54.98809814453125,-1.6194000244140625,anonymous,EN,trial,flow.Sequence,3_47,NA,NA,completion,195.05999999999767,107107,107108.42,107124.94,107320,107323,2020-11-18T12:05:06Z,107340.94,4,1,exp,74,sensible,concrete,no_transfer,NA,Patrick held the cafeteria tray with you.,s,NA,NA,NA,NA,NA,NA,NA,NA,NA,NA,NA,NA,NA,NA,NA,NA,NA,NA,NA,Yes
2020-11-18T05:03:14Z,2020-11-18T05:05:49Z,IP Address,151.228.161.246,100,155,TRUE,2020-11-18T05:05:49Z,R_3fCqQko0KQrT4Wz,NA,NA,NA,NA,54.98809814453125,-1.6194000244140625,anonymous,EN,fixation_cross,canvas.Screen,3_48_0,end_fixation,keypress(Space),response,63.05999999999767,107324,107324.34,107340.94,107404,107407,2020-11-18T12:05:06Z,107441.2,4,1,exp,155,nonsense,transfer,NA,NA,You bled the rations to Paige.,w,NA,NA,NA,NA,NA,NA,NA,NA,NA,NA,NA,NA,NA,NA,NA,NA,NA,NA,NA,Yes
2020-11-18T05:03:14Z,2020-11-18T05:05:49Z,IP Address,151.228.161.246,100,155,TRUE,2020-11-18T05:05:49Z,R_3fCqQko0KQrT4Wz,NA,NA,NA,NA,54.98809814453125,-1.6194000244140625,anonymous,EN,sentence_screen,canvas.Screen,3_48_1,s,keypress(s),response,78.80000000000291,107408,107424.68,107441.2,107520,107523,2020-11-18T12:05:06Z,107540.92,4,1,exp,155,nonsense,transfer,NA,NA,You bled the rations to Paige.,w,w,FALSE,NA,NA,NA,NA,NA,NA,NA,NA,NA,NA,NA,NA,NA,NA,NA,NA,NA,Yes
2020-11-18T05:03:14Z,2020-11-18T05:05:49Z,IP Address,151.228.161.246,100,155,TRUE,2020-11-18T05:05:49Z,R_3fCqQko0KQrT4Wz,NA,NA,NA,NA,54.98809814453125,-1.6194000244140625,anonymous,EN,trial,flow.Sequence,3_48,NA,NA,completion,179.05999999999767,107324,107324.34,107340.94,107520,107523,2020-11-18T12:05:06Z,107540.92,4,1,exp,155,nonsense,transfer,NA,NA,You bled the rations to Paige.,w,NA,NA,NA,NA,NA,NA,NA,NA,NA,NA,NA,NA,NA,NA,NA,NA,NA,NA,NA,Yes
2020-11-18T05:03:14Z,2020-11-18T05:05:49Z,IP Address,151.228.161.246,100,155,TRUE,2020-11-18T05:05:49Z,R_3fCqQko0KQrT4Wz,NA,NA,NA,NA,54.98809814453125,-1.6194000244140625,anonymous,EN,fixation_cross,canvas.Screen,3_49_0,end_fixation,keypress(Space),response,67.08000000000175,107523,107524.18,107540.92,107608,107611,2020-11-18T12:05:06Z,107641.84,4,1,exp,157,nonsense,transfer,NA,NA,You drank the baseball with Emily.,w,NA,NA,NA,NA,NA,NA,NA,NA,NA,NA,NA,NA,NA,NA,NA,NA,NA,NA,NA,Yes
2020-11-18T05:03:14Z,2020-11-18T05:05:49Z,IP Address,151.228.161.246,100,155,TRUE,2020-11-18T05:05:49Z,R_3fCqQko0KQrT4Wz,NA,NA,NA,NA,54.98809814453125,-1.6194000244140625,anonymous,EN,sentence_screen,canvas.Screen,3_49_1,s,keypress(s),response,38.16000000000349,107611,107625.14,107641.84,107680,107683,2020-11-18T12:05:07Z,107708.54,4,1,exp,157,nonsense,transfer,NA,NA,You drank the baseball with Emily.,w,w,FALSE,NA,NA,NA,NA,NA,NA,NA,NA,NA,NA,NA,NA,NA,NA,NA,NA,NA,Yes
2020-11-18T05:03:14Z,2020-11-18T05:05:49Z,IP Address,151.228.161.246,100,155,TRUE,2020-11-18T05:05:49Z,R_3fCqQko0KQrT4Wz,NA,NA,NA,NA,54.98809814453125,-1.6194000244140625,anonymous,EN,trial,flow.Sequence,3_49,NA,NA,completion,139.08000000000175,107523,107524.18,107540.92,107680,107683,2020-11-18T12:05:07Z,107708.54,4,1,exp,157,nonsense,transfer,NA,NA,You drank the baseball with Emily.,w,NA,NA,NA,NA,NA,NA,NA,NA,NA,NA,NA,NA,NA,NA,NA,NA,NA,NA,NA,Yes
2020-11-18T05:03:14Z,2020-11-18T05:05:49Z,IP Address,151.228.161.246,100,155,TRUE,2020-11-18T05:05:49Z,R_3fCqQko0KQrT4Wz,NA,NA,NA,NA,54.98809814453125,-1.6194000244140625,anonymous,EN,fixation_cross,canvas.Screen,3_50_0,end_fixation,keypress(Space),response,95.4600000000064,107684,107691.86,107708.54,107804,107807,2020-11-18T12:05:07Z,107825.22,4,1,exp,178,nonsense,transfer,NA,NA,Bronzelle broke the writing tips on you.,w,NA,NA,NA,NA,NA,NA,NA,NA,NA,NA,NA,NA,NA,NA,NA,NA,NA,NA,NA,Yes
2020-11-18T05:03:14Z,2020-11-18T05:05:49Z,IP Address,151.228.161.246,100,155,TRUE,2020-11-18T05:05:49Z,R_3fCqQko0KQrT4Wz,NA,NA,NA,NA,54.98809814453125,-1.6194000244140625,anonymous,EN,sentence_screen,canvas.Screen,3_50_1,w,keypress(w),response,66.77999999999884,107808,107808.48,107825.22,107892,107895,2020-11-18T12:05:07Z,107925,4,1,exp,178,nonsense,transfer,NA,NA,Bronzelle broke the writing tips on you.,w,w,TRUE,NA,NA,NA,NA,NA,NA,NA,NA,NA,NA,NA,NA,NA,NA,NA,NA,NA,Yes
2020-11-18T05:03:14Z,2020-11-18T05:05:49Z,IP Address,151.228.161.246,100,155,TRUE,2020-11-18T05:05:49Z,R_3fCqQko0KQrT4Wz,NA,NA,NA,NA,54.98809814453125,-1.6194000244140625,anonymous,EN,trial,flow.Sequence,3_50,NA,NA,completion,183.4600000000064,107684,107691.86,107708.54,107892,107896,2020-11-18T12:05:07Z,107925,4,1,exp,178,nonsense,transfer,NA,NA,Bronzelle broke the writing tips on you.,w,NA,NA,NA,NA,NA,NA,NA,NA,NA,NA,NA,NA,NA,NA,NA,NA,NA,NA,NA,Yes
2020-11-18T05:03:14Z,2020-11-18T05:05:49Z,IP Address,151.228.161.246,100,155,TRUE,2020-11-18T05:05:49Z,R_3fCqQko0KQrT4Wz,NA,NA,NA,NA,54.98809814453125,-1.6194000244140625,anonymous,EN,fixation_cross,canvas.Screen,3_51_0,end_fixation,keypress(Space),response,91,107896,107908.34,107925,108016,108019,2020-11-18T12:05:07Z,108041.88,4,1,exp,190,nonsense,transfer,NA,NA,You drank Yashira your regards.,w,NA,NA,NA,NA,NA,NA,NA,NA,NA,NA,NA,NA,NA,NA,NA,NA,NA,NA,NA,Yes
2020-11-18T05:03:14Z,2020-11-18T05:05:49Z,IP Address,151.228.161.246,100,155,TRUE,2020-11-18T05:05:49Z,R_3fCqQko0KQrT4Wz,NA,NA,NA,NA,54.98809814453125,-1.6194000244140625,anonymous,EN,sentence_screen,canvas.Screen,3_51_1,w,keypress(w),response,62.11999999999534,108019,108025.14,108041.88,108104,108107,2020-11-18T12:05:07Z,108124.86,4,1,exp,190,nonsense,transfer,NA,NA,You drank Yashira your regards.,w,w,TRUE,NA,NA,NA,NA,NA,NA,NA,NA,NA,NA,NA,NA,NA,NA,NA,NA,NA,Yes
2020-11-18T05:03:14Z,2020-11-18T05:05:49Z,IP Address,151.228.161.246,100,155,TRUE,2020-11-18T05:05:49Z,R_3fCqQko0KQrT4Wz,NA,NA,NA,NA,54.98809814453125,-1.6194000244140625,anonymous,EN,trial,flow.Sequence,3_51,NA,NA,completion,179,107896,107908.34,107925,108104,108108,2020-11-18T12:05:07Z,108124.86,4,1,exp,190,nonsense,transfer,NA,NA,You drank Yashira your regards.,w,NA,NA,NA,NA,NA,NA,NA,NA,NA,NA,NA,NA,NA,NA,NA,NA,NA,NA,NA,Yes
2020-11-18T05:03:14Z,2020-11-18T05:05:49Z,IP Address,151.228.161.246,100,155,TRUE,2020-11-18T05:05:49Z,R_3fCqQko0KQrT4Wz,NA,NA,NA,NA,54.98809814453125,-1.6194000244140625,anonymous,EN,fixation_cross,canvas.Screen,3_52_0,end_fixation,keypress(Space),response,99.13999999999942,108108,108108.42,108124.86,108224,108227,2020-11-18T12:05:07Z,108257.88,4,1,exp,63,sensible,concrete,no_transfer,NA,Erik played baseball with you.,s,NA,NA,NA,NA,NA,NA,NA,NA,NA,NA,NA,NA,NA,NA,NA,NA,NA,NA,NA,Yes
2020-11-18T05:03:14Z,2020-11-18T05:05:49Z,IP Address,151.228.161.246,100,155,TRUE,2020-11-18T05:05:49Z,R_3fCqQko0KQrT4Wz,NA,NA,NA,NA,54.98809814453125,-1.6194000244140625,anonymous,EN,sentence_screen,canvas.Screen,3_52_1,w,keypress(w),response,38.11999999999534,108228,108240.86,108257.88,108296,108299,2020-11-18T12:05:07Z,108324.6,4,1,exp,63,sensible,concrete,no_transfer,NA,Erik played baseball with you.,s,s,FALSE,NA,NA,NA,NA,NA,NA,NA,NA,NA,NA,NA,NA,NA,NA,NA,NA,NA,Yes
2020-11-18T05:03:14Z,2020-11-18T05:05:49Z,IP Address,151.228.161.246,100,155,TRUE,2020-11-18T05:05:49Z,R_3fCqQko0KQrT4Wz,NA,NA,NA,NA,54.98809814453125,-1.6194000244140625,anonymous,EN,trial,flow.Sequence,3_52,NA,NA,completion,171.13999999999942,108108,108108.42,108124.86,108296,108299,2020-11-18T12:05:07Z,108324.6,4,1,exp,63,sensible,concrete,no_transfer,NA,Erik played baseball with you.,s,NA,NA,NA,NA,NA,NA,NA,NA,NA,NA,NA,NA,NA,NA,NA,NA,NA,NA,NA,Yes
2020-11-18T05:03:14Z,2020-11-18T05:05:49Z,IP Address,151.228.161.246,100,155,TRUE,2020-11-18T05:05:49Z,R_3fCqQko0KQrT4Wz,NA,NA,NA,NA,54.98809814453125,-1.6194000244140625,anonymous,EN,fixation_cross,canvas.Screen,3_53_0,end_fixation,keypress(Space),response,96.39999999999418,108300,108307.74,108324.6,108421,108423,2020-11-18T12:05:07Z,108441.9,4,1,exp,66,sensible,concrete,no_transfer,NA,You ate ice cream with Tiauna.,s,NA,NA,NA,NA,NA,NA,NA,NA,NA,NA,NA,NA,NA,NA,NA,NA,NA,NA,NA,Yes
2020-11-18T05:03:14Z,2020-11-18T05:05:49Z,IP Address,151.228.161.246,100,155,TRUE,2020-11-18T05:05:49Z,R_3fCqQko0KQrT4Wz,NA,NA,NA,NA,54.98809814453125,-1.6194000244140625,anonymous,EN,sentence_screen,canvas.Screen,3_53_1,s,keypress(s),response,82.10000000000582,108423,108424.36,108441.9,108524,108527,2020-11-18T12:05:07Z,108558,4,1,exp,66,sensible,concrete,no_transfer,NA,You ate ice cream with Tiauna.,s,s,TRUE,NA,NA,NA,NA,NA,NA,NA,NA,NA,NA,NA,NA,NA,NA,NA,NA,NA,Yes
2020-11-18T05:03:14Z,2020-11-18T05:05:49Z,IP Address,151.228.161.246,100,155,TRUE,2020-11-18T05:05:49Z,R_3fCqQko0KQrT4Wz,NA,NA,NA,NA,54.98809814453125,-1.6194000244140625,anonymous,EN,trial,flow.Sequence,3_53,NA,NA,completion,199.39999999999418,108300,108307.74,108324.6,108524,108527,2020-11-18T12:05:07Z,108558,4,1,exp,66,sensible,concrete,no_transfer,NA,You ate ice cream with Tiauna.,s,NA,NA,NA,NA,NA,NA,NA,NA,NA,NA,NA,NA,NA,NA,NA,NA,NA,NA,NA,Yes
2020-11-18T05:03:14Z,2020-11-18T05:05:49Z,IP Address,151.228.161.246,100,155,TRUE,2020-11-18T05:05:49Z,R_3fCqQko0KQrT4Wz,NA,NA,NA,NA,54.98809814453125,-1.6194000244140625,anonymous,EN,fixation_cross,canvas.Screen,3_54_0,end_fixation,keypress(Space),response,62,108527,108541.8,108558,108620,108623,2020-11-18T12:05:07Z,108641.88,4,1,exp,166,nonsense,transfer,NA,NA,Tchuen-Yi frowned the door for you.,w,NA,NA,NA,NA,NA,NA,NA,NA,NA,NA,NA,NA,NA,NA,NA,NA,NA,NA,NA,Yes
2020-11-18T05:03:14Z,2020-11-18T05:05:49Z,IP Address,151.228.161.246,100,155,TRUE,2020-11-18T05:05:49Z,R_3fCqQko0KQrT4Wz,NA,NA,NA,NA,54.98809814453125,-1.6194000244140625,anonymous,EN,sentence_screen,canvas.Screen,3_54_1,s,keypress(s),response,70.11999999999534,108624,108624.28,108641.88,108712,108715,2020-11-18T12:05:08Z,108740.96,4,1,exp,166,nonsense,transfer,NA,NA,Tchuen-Yi frowned the door for you.,w,w,FALSE,NA,NA,NA,NA,NA,NA,NA,NA,NA,NA,NA,NA,NA,NA,NA,NA,NA,Yes
2020-11-18T05:03:14Z,2020-11-18T05:05:49Z,IP Address,151.228.161.246,100,155,TRUE,2020-11-18T05:05:49Z,R_3fCqQko0KQrT4Wz,NA,NA,NA,NA,54.98809814453125,-1.6194000244140625,anonymous,EN,trial,flow.Sequence,3_54,NA,NA,completion,154,108527,108541.8,108558,108712,108716,2020-11-18T12:05:08Z,108740.96,4,1,exp,166,nonsense,transfer,NA,NA,Tchuen-Yi frowned the door for you.,w,NA,NA,NA,NA,NA,NA,NA,NA,NA,NA,NA,NA,NA,NA,NA,NA,NA,NA,NA,Yes
2020-11-18T05:03:14Z,2020-11-18T05:05:49Z,IP Address,151.228.161.246,100,155,TRUE,2020-11-18T05:05:49Z,R_3fCqQko0KQrT4Wz,NA,NA,NA,NA,54.98809814453125,-1.6194000244140625,anonymous,EN,fixation_cross,canvas.Screen,3_55_0,end_fixation,keypress(Space),response,67.0399999999936,108716,108724.46,108740.96,108808,108811,2020-11-18T12:05:08Z,108841.22,4,1,exp,200,nonsense,transfer,NA,NA,You shrugged Ariana the hard drive.,w,NA,NA,NA,NA,NA,NA,NA,NA,NA,NA,NA,NA,NA,NA,NA,NA,NA,NA,NA,Yes
2020-11-18T05:03:14Z,2020-11-18T05:05:49Z,IP Address,151.228.161.246,100,155,TRUE,2020-11-18T05:05:49Z,R_3fCqQko0KQrT4Wz,NA,NA,NA,NA,54.98809814453125,-1.6194000244140625,anonymous,EN,sentence_screen,canvas.Screen,3_55_1,s,keypress(s),response,262.77999999999884,108812,108825.16,108841.22,109104,109107,2020-11-18T12:05:08Z,109125.14,4,1,exp,200,nonsense,transfer,NA,NA,You shrugged Ariana the hard drive.,w,w,FALSE,NA,NA,NA,NA,NA,NA,NA,NA,NA,NA,NA,NA,NA,NA,NA,NA,NA,Yes
2020-11-18T05:03:14Z,2020-11-18T05:05:49Z,IP Address,151.228.161.246,100,155,TRUE,2020-11-18T05:05:49Z,R_3fCqQko0KQrT4Wz,NA,NA,NA,NA,54.98809814453125,-1.6194000244140625,anonymous,EN,trial,flow.Sequence,3_55,NA,NA,completion,363.0399999999936,108716,108724.46,108740.96,109104,109107,2020-11-18T12:05:08Z,109125.14,4,1,exp,200,nonsense,transfer,NA,NA,You shrugged Ariana the hard drive.,w,NA,NA,NA,NA,NA,NA,NA,NA,NA,NA,NA,NA,NA,NA,NA,NA,NA,NA,NA,Yes
2020-11-18T05:03:14Z,2020-11-18T05:05:49Z,IP Address,151.228.161.246,100,155,TRUE,2020-11-18T05:05:49Z,R_3fCqQko0KQrT4Wz,NA,NA,NA,NA,54.98809814453125,-1.6194000244140625,anonymous,EN,fixation_cross,canvas.Screen,3_56_0,end_fixation,keypress(Space),response,154.86000000000058,109107,109108.44,109125.14,109280,109283,2020-11-18T12:05:08Z,109308.52,4,1,exp,143,nonsense,transfer,NA,NA,You fell the message to Auriel.,w,NA,NA,NA,NA,NA,NA,NA,NA,NA,NA,NA,NA,NA,NA,NA,NA,NA,NA,NA,Yes
2020-11-18T05:03:14Z,2020-11-18T05:05:49Z,IP Address,151.228.161.246,100,155,TRUE,2020-11-18T05:05:49Z,R_3fCqQko0KQrT4Wz,NA,NA,NA,NA,54.98809814453125,-1.6194000244140625,anonymous,EN,sentence_screen,canvas.Screen,3_56_1,w,keypress(w),response,479.4799999999959,109283,109291.84,109308.52,109788,109792,2020-11-18T12:05:09Z,109807.64,4,1,exp,143,nonsense,transfer,NA,NA,You fell the message to Auriel.,w,w,TRUE,NA,NA,NA,NA,NA,NA,NA,NA,NA,NA,NA,NA,NA,NA,NA,NA,NA,Yes
2020-11-18T05:03:14Z,2020-11-18T05:05:49Z,IP Address,151.228.161.246,100,155,TRUE,2020-11-18T05:05:49Z,R_3fCqQko0KQrT4Wz,NA,NA,NA,NA,54.98809814453125,-1.6194000244140625,anonymous,EN,trial,flow.Sequence,3_56,NA,NA,completion,662.8600000000006,109107,109108.44,109125.14,109788,109792,2020-11-18T12:05:09Z,109807.64,4,1,exp,143,nonsense,transfer,NA,NA,You fell the message to Auriel.,w,NA,NA,NA,NA,NA,NA,NA,NA,NA,NA,NA,NA,NA,NA,NA,NA,NA,NA,NA,Yes
2020-11-18T05:03:14Z,2020-11-18T05:05:49Z,IP Address,151.228.161.246,100,155,TRUE,2020-11-18T05:05:49Z,R_3fCqQko0KQrT4Wz,NA,NA,NA,NA,54.98809814453125,-1.6194000244140625,anonymous,EN,fixation_cross,canvas.Screen,3_57_0,end_fixation,keypress(Space),response,116.36000000000058,109792,109791.78,109807.64,109924,109927,2020-11-18T12:05:09Z,109958.54,4,1,exp,154,nonsense,transfer,NA,NA,You genuflected Mauricio orders.,w,NA,NA,NA,NA,NA,NA,NA,NA,NA,NA,NA,NA,NA,NA,NA,NA,NA,NA,NA,Yes
2020-11-18T05:03:14Z,2020-11-18T05:05:49Z,IP Address,151.228.161.246,100,155,TRUE,2020-11-18T05:05:49Z,R_3fCqQko0KQrT4Wz,NA,NA,NA,NA,54.98809814453125,-1.6194000244140625,anonymous,EN,sentence_screen,canvas.Screen,3_57_1,w,keypress(w),response,65.4600000000064,109927,109941.02,109958.54,110024,110028,2020-11-18T12:05:09Z,110058.36,4,1,exp,154,nonsense,transfer,NA,NA,You genuflected Mauricio orders.,w,w,TRUE,NA,NA,NA,NA,NA,NA,NA,NA,NA,NA,NA,NA,NA,NA,NA,NA,NA,Yes
2020-11-18T05:03:14Z,2020-11-18T05:05:49Z,IP Address,151.228.161.246,100,155,TRUE,2020-11-18T05:05:49Z,R_3fCqQko0KQrT4Wz,NA,NA,NA,NA,54.98809814453125,-1.6194000244140625,anonymous,EN,trial,flow.Sequence,3_57,NA,NA,completion,216.36000000000058,109792,109791.78,109807.64,110024,110028,2020-11-18T12:05:09Z,110058.36,4,1,exp,154,nonsense,transfer,NA,NA,You genuflected Mauricio orders.,w,NA,NA,NA,NA,NA,NA,NA,NA,NA,NA,NA,NA,NA,NA,NA,NA,NA,NA,NA,Yes
2020-11-18T05:03:14Z,2020-11-18T05:05:49Z,IP Address,151.228.161.246,100,155,TRUE,2020-11-18T05:05:49Z,R_3fCqQko0KQrT4Wz,NA,NA,NA,NA,54.98809814453125,-1.6194000244140625,anonymous,EN,fixation_cross,canvas.Screen,3_58_0,end_fixation,keypress(Space),response,65.63999999999942,110029,110041.88,110058.36,110124,110127,2020-11-18T12:05:09Z,110158.54,4,1,exp,35,sensible,concrete,transfer,towards,Charles entrusted the key to you.,s,NA,NA,NA,NA,NA,NA,NA,NA,NA,NA,NA,NA,NA,NA,NA,NA,NA,NA,NA,Yes
2020-11-18T05:03:14Z,2020-11-18T05:05:49Z,IP Address,151.228.161.246,100,155,TRUE,2020-11-18T05:05:49Z,R_3fCqQko0KQrT4Wz,NA,NA,NA,NA,54.98809814453125,-1.6194000244140625,anonymous,EN,sentence_screen,canvas.Screen,3_58_1,w,keypress(w),response,70.4600000000064,110127,110141.12,110158.54,110229,110231,2020-11-18T12:05:09Z,110257.86,4,1,exp,35,sensible,concrete,transfer,towards,Charles entrusted the key to you.,s,s,FALSE,NA,NA,NA,NA,NA,NA,NA,NA,NA,NA,NA,NA,NA,NA,NA,NA,NA,Yes
2020-11-18T05:03:14Z,2020-11-18T05:05:49Z,IP Address,151.228.161.246,100,155,TRUE,2020-11-18T05:05:49Z,R_3fCqQko0KQrT4Wz,NA,NA,NA,NA,54.98809814453125,-1.6194000244140625,anonymous,EN,trial,flow.Sequence,3_58,NA,NA,completion,170.63999999999942,110029,110041.88,110058.36,110229,110231,2020-11-18T12:05:09Z,110257.86,4,1,exp,35,sensible,concrete,transfer,towards,Charles entrusted the key to you.,s,NA,NA,NA,NA,NA,NA,NA,NA,NA,NA,NA,NA,NA,NA,NA,NA,NA,NA,NA,Yes
2020-11-18T05:03:14Z,2020-11-18T05:05:49Z,IP Address,151.228.161.246,100,155,TRUE,2020-11-18T05:05:49Z,R_3fCqQko0KQrT4Wz,NA,NA,NA,NA,54.98809814453125,-1.6194000244140625,anonymous,EN,fixation_cross,canvas.Screen,3_59_0,end_fixation,keypress(Space),response,82.13999999999942,110232,110241.2,110257.86,110340,110344,2020-11-18T12:05:09Z,110375.22,4,1,exp,191,nonsense,transfer,NA,NA,You roasted Edward the notion.,w,NA,NA,NA,NA,NA,NA,NA,NA,NA,NA,NA,NA,NA,NA,NA,NA,NA,NA,NA,Yes
2020-11-18T05:03:14Z,2020-11-18T05:05:49Z,IP Address,151.228.161.246,100,155,TRUE,2020-11-18T05:05:49Z,R_3fCqQko0KQrT4Wz,NA,NA,NA,NA,54.98809814453125,-1.6194000244140625,anonymous,EN,sentence_screen,canvas.Screen,3_59_1,w,keypress(w),response,28.779999999998836,110344,110358.54,110375.22,110404,110407,2020-11-18T12:05:09Z,110441.22,4,1,exp,191,nonsense,transfer,NA,NA,You roasted Edward the notion.,w,w,TRUE,NA,NA,NA,NA,NA,NA,NA,NA,NA,NA,NA,NA,NA,NA,NA,NA,NA,Yes
2020-11-18T05:03:14Z,2020-11-18T05:05:49Z,IP Address,151.228.161.246,100,155,TRUE,2020-11-18T05:05:49Z,R_3fCqQko0KQrT4Wz,NA,NA,NA,NA,54.98809814453125,-1.6194000244140625,anonymous,EN,trial,flow.Sequence,3_59,NA,NA,completion,146.13999999999942,110232,110241.2,110257.86,110404,110407,2020-11-18T12:05:09Z,110441.22,4,1,exp,191,nonsense,transfer,NA,NA,You roasted Edward the notion.,w,NA,NA,NA,NA,NA,NA,NA,NA,NA,NA,NA,NA,NA,NA,NA,NA,NA,NA,NA,Yes
2020-11-18T05:03:14Z,2020-11-18T05:05:49Z,IP Address,151.228.161.246,100,155,TRUE,2020-11-18T05:05:49Z,R_3fCqQko0KQrT4Wz,NA,NA,NA,NA,54.98809814453125,-1.6194000244140625,anonymous,EN,fixation_cross,canvas.Screen,3_60_0,end_fixation,keypress(Space),response,82.77999999999884,110408,110424.52,110441.22,110524,110528,2020-11-18T12:05:09Z,110557.84,4,1,exp,185,nonsense,transfer,NA,NA,Summer tackled the cloud to you.,w,NA,NA,NA,NA,NA,NA,NA,NA,NA,NA,NA,NA,NA,NA,NA,NA,NA,NA,NA,Yes
2020-11-18T05:03:14Z,2020-11-18T05:05:49Z,IP Address,151.228.161.246,100,155,TRUE,2020-11-18T05:05:49Z,R_3fCqQko0KQrT4Wz,NA,NA,NA,NA,54.98809814453125,-1.6194000244140625,anonymous,EN,sentence_screen,canvas.Screen,3_60_1,s,keypress(s),response,106.16000000000349,110528,110541.18,110557.84,110664,110667,2020-11-18T12:05:10Z,110691.2,4,1,exp,185,nonsense,transfer,NA,NA,Summer tackled the cloud to you.,w,w,FALSE,NA,NA,NA,NA,NA,NA,NA,NA,NA,NA,NA,NA,NA,NA,NA,NA,NA,Yes
2020-11-18T05:03:14Z,2020-11-18T05:05:49Z,IP Address,151.228.161.246,100,155,TRUE,2020-11-18T05:05:49Z,R_3fCqQko0KQrT4Wz,NA,NA,NA,NA,54.98809814453125,-1.6194000244140625,anonymous,EN,trial,flow.Sequence,3_60,NA,NA,completion,222.77999999999884,110408,110424.52,110441.22,110664,110668,2020-11-18T12:05:10Z,110691.2,4,1,exp,185,nonsense,transfer,NA,NA,Summer tackled the cloud to you.,w,NA,NA,NA,NA,NA,NA,NA,NA,NA,NA,NA,NA,NA,NA,NA,NA,NA,NA,NA,Yes
2020-11-18T05:03:14Z,2020-11-18T05:05:49Z,IP Address,151.228.161.246,100,155,TRUE,2020-11-18T05:05:49Z,R_3fCqQko0KQrT4Wz,NA,NA,NA,NA,54.98809814453125,-1.6194000244140625,anonymous,EN,fixation_cross,canvas.Screen,3_61_0,end_fixation,keypress(Space),response,104.80000000000291,110668,110675.18,110691.2,110796,110800,2020-11-18T12:05:10Z,110824.4,4,1,exp,186,nonsense,transfer,NA,NA,Jessica threw you the street.,w,NA,NA,NA,NA,NA,NA,NA,NA,NA,NA,NA,NA,NA,NA,NA,NA,NA,NA,NA,Yes
2020-11-18T05:03:14Z,2020-11-18T05:05:49Z,IP Address,151.228.161.246,100,155,TRUE,2020-11-18T05:05:49Z,R_3fCqQko0KQrT4Wz,NA,NA,NA,NA,54.98809814453125,-1.6194000244140625,anonymous,EN,sentence_screen,canvas.Screen,3_61_1,s,keypress(s),response,51.60000000000582,110800,110807.62,110824.4,110876,110880,2020-11-18T12:05:10Z,110907.9,4,1,exp,186,nonsense,transfer,NA,NA,Jessica threw you the street.,w,w,FALSE,NA,NA,NA,NA,NA,NA,NA,NA,NA,NA,NA,NA,NA,NA,NA,NA,NA,Yes
2020-11-18T05:03:14Z,2020-11-18T05:05:49Z,IP Address,151.228.161.246,100,155,TRUE,2020-11-18T05:05:49Z,R_3fCqQko0KQrT4Wz,NA,NA,NA,NA,54.98809814453125,-1.6194000244140625,anonymous,EN,trial,flow.Sequence,3_61,NA,NA,completion,184.8000000000029,110668,110675.18,110691.2,110876,110880,2020-11-18T12:05:10Z,110907.9,4,1,exp,186,nonsense,transfer,NA,NA,Jessica threw you the street.,w,NA,NA,NA,NA,NA,NA,NA,NA,NA,NA,NA,NA,NA,NA,NA,NA,NA,NA,NA,Yes
2020-11-18T05:03:14Z,2020-11-18T05:05:49Z,IP Address,151.228.161.246,100,155,TRUE,2020-11-18T05:05:49Z,R_3fCqQko0KQrT4Wz,NA,NA,NA,NA,54.98809814453125,-1.6194000244140625,anonymous,EN,fixation_cross,canvas.Screen,3_62_0,end_fixation,keypress(Space),response,57.10000000000582,110880,110891.84,110907.9,110965,110968,2020-11-18T12:05:10Z,110991.84,4,1,exp,192,nonsense,transfer,NA,NA,Muaaid watered you a tribute.,w,NA,NA,NA,NA,NA,NA,NA,NA,NA,NA,NA,NA,NA,NA,NA,NA,NA,NA,NA,Yes
2020-11-18T05:03:14Z,2020-11-18T05:05:49Z,IP Address,151.228.161.246,100,155,TRUE,2020-11-18T05:05:49Z,R_3fCqQko0KQrT4Wz,NA,NA,NA,NA,54.98809814453125,-1.6194000244140625,anonymous,EN,sentence_screen,canvas.Screen,3_62_1,s,keypress(s),response,76.16000000000349,110968,110975.18,110991.84,111068,111072,2020-11-18T12:05:10Z,111091.16,4,1,exp,192,nonsense,transfer,NA,NA,Muaaid watered you a tribute.,w,w,FALSE,NA,NA,NA,NA,NA,NA,NA,NA,NA,NA,NA,NA,NA,NA,NA,NA,NA,Yes
2020-11-18T05:03:14Z,2020-11-18T05:05:49Z,IP Address,151.228.161.246,100,155,TRUE,2020-11-18T05:05:49Z,R_3fCqQko0KQrT4Wz,NA,NA,NA,NA,54.98809814453125,-1.6194000244140625,anonymous,EN,trial,flow.Sequence,3_62,NA,NA,completion,160.10000000000582,110880,110891.84,110907.9,111068,111072,2020-11-18T12:05:10Z,111091.16,4,1,exp,192,nonsense,transfer,NA,NA,Muaaid watered you a tribute.,w,NA,NA,NA,NA,NA,NA,NA,NA,NA,NA,NA,NA,NA,NA,NA,NA,NA,NA,NA,Yes
2020-11-18T05:03:14Z,2020-11-18T05:05:49Z,IP Address,151.228.161.246,100,155,TRUE,2020-11-18T05:05:49Z,R_3fCqQko0KQrT4Wz,NA,NA,NA,NA,54.98809814453125,-1.6194000244140625,anonymous,EN,fixation_cross,canvas.Screen,3_63_0,end_fixation,keypress(Space),response,41.83999999999651,111072,111074.4,111091.16,111133,111135,2020-11-18T12:05:10Z,111157.84,4,1,exp,149,nonsense,transfer,NA,NA,Tammy paddled fairness to you.,w,NA,NA,NA,NA,NA,NA,NA,NA,NA,NA,NA,NA,NA,NA,NA,NA,NA,NA,NA,Yes
2020-11-18T05:03:14Z,2020-11-18T05:05:49Z,IP Address,151.228.161.246,100,155,TRUE,2020-11-18T05:05:49Z,R_3fCqQko0KQrT4Wz,NA,NA,NA,NA,54.98809814453125,-1.6194000244140625,anonymous,EN,sentence_screen,canvas.Screen,3_63_1,s,keypress(s),response,106.16000000000349,111135,111140.94,111157.84,111264,111267,2020-11-18T12:05:10Z,111291.16,4,1,exp,149,nonsense,transfer,NA,NA,Tammy paddled fairness to you.,w,w,FALSE,NA,NA,NA,NA,NA,NA,NA,NA,NA,NA,NA,NA,NA,NA,NA,NA,NA,Yes
2020-11-18T05:03:14Z,2020-11-18T05:05:49Z,IP Address,151.228.161.246,100,155,TRUE,2020-11-18T05:05:49Z,R_3fCqQko0KQrT4Wz,NA,NA,NA,NA,54.98809814453125,-1.6194000244140625,anonymous,EN,trial,flow.Sequence,3_63,NA,NA,completion,172.8399999999965,111072,111074.4,111091.16,111264,111267,2020-11-18T12:05:10Z,111291.16,4,1,exp,149,nonsense,transfer,NA,NA,Tammy paddled fairness to you.,w,NA,NA,NA,NA,NA,NA,NA,NA,NA,NA,NA,NA,NA,NA,NA,NA,NA,NA,NA,Yes
2020-11-18T05:03:14Z,2020-11-18T05:05:49Z,IP Address,151.228.161.246,100,155,TRUE,2020-11-18T05:05:49Z,R_3fCqQko0KQrT4Wz,NA,NA,NA,NA,54.98809814453125,-1.6194000244140625,anonymous,EN,fixation_cross,canvas.Screen,3_64_0,end_fixation,keypress(Space),response,72.83999999999651,111267,111274.26,111291.16,111364,111367,2020-11-18T12:05:10Z,111391.64,4,1,exp,147,nonsense,transfer,NA,NA,Carlos wedged an homage to you.,w,NA,NA,NA,NA,NA,NA,NA,NA,NA,NA,NA,NA,NA,NA,NA,NA,NA,NA,NA,Yes
2020-11-18T05:03:14Z,2020-11-18T05:05:49Z,IP Address,151.228.161.246,100,155,TRUE,2020-11-18T05:05:49Z,R_3fCqQko0KQrT4Wz,NA,NA,NA,NA,54.98809814453125,-1.6194000244140625,anonymous,EN,sentence_screen,canvas.Screen,3_64_1,w,keypress(w),response,64.36000000000058,111368,111375.2,111391.64,111456,111460,2020-11-18T12:05:10Z,111491.86,4,1,exp,147,nonsense,transfer,NA,NA,Carlos wedged an homage to you.,w,w,TRUE,NA,NA,NA,NA,NA,NA,NA,NA,NA,NA,NA,NA,NA,NA,NA,NA,NA,Yes
2020-11-18T05:03:14Z,2020-11-18T05:05:49Z,IP Address,151.228.161.246,100,155,TRUE,2020-11-18T05:05:49Z,R_3fCqQko0KQrT4Wz,NA,NA,NA,NA,54.98809814453125,-1.6194000244140625,anonymous,EN,trial,flow.Sequence,3_64,NA,NA,completion,164.8399999999965,111267,111274.26,111291.16,111456,111460,2020-11-18T12:05:10Z,111491.86,4,1,exp,147,nonsense,transfer,NA,NA,Carlos wedged an homage to you.,w,NA,NA,NA,NA,NA,NA,NA,NA,NA,NA,NA,NA,NA,NA,NA,NA,NA,NA,NA,Yes
2020-11-18T05:03:14Z,2020-11-18T05:05:49Z,IP Address,151.228.161.246,100,155,TRUE,2020-11-18T05:05:49Z,R_3fCqQko0KQrT4Wz,NA,NA,NA,NA,54.98809814453125,-1.6194000244140625,anonymous,EN,fixation_cross,canvas.Screen,3_65_0,end_fixation,keypress(Space),response,76.13999999999942,111460,111474.32,111491.86,111568,111572,2020-11-18T12:05:10Z,111591.5,4,1,exp,32,sensible,concrete,transfer,away,You rolled Selena the marble.,s,NA,NA,NA,NA,NA,NA,NA,NA,NA,NA,NA,NA,NA,NA,NA,NA,NA,NA,NA,Yes
2020-11-18T05:03:14Z,2020-11-18T05:05:49Z,IP Address,151.228.161.246,100,155,TRUE,2020-11-18T05:05:49Z,R_3fCqQko0KQrT4Wz,NA,NA,NA,NA,54.98809814453125,-1.6194000244140625,anonymous,EN,sentence_screen,canvas.Screen,3_65_1,w,keypress(w),response,60.5,111572,111575.02,111591.5,111652,111656,2020-11-18T12:05:11Z,111674.2,4,1,exp,32,sensible,concrete,transfer,away,You rolled Selena the marble.,s,s,FALSE,NA,NA,NA,NA,NA,NA,NA,NA,NA,NA,NA,NA,NA,NA,NA,NA,NA,Yes
